submission_id,RT,age,comments,education,endTime,gender,languages,picture,question0,question1,question2,question3,question4,response0,response1,response2,response3,response4,startDate,startTime,timeSpent,trial_name,trial_number,yesno-choice0,yesno-choice1,yesno-choice2,yesno-choice3,yesno-choice4
210,32195,32,,Graduated College,1.66E+12,male,english,images/UPHazard0DOWNHazard100.gif,The appearance of the rock <strong>blocked</strong> the farmer from reaching the <strong>apple</strong>.,The wizard <strong>moved</strong> his wand.,The appearance of the rock <strong>got</strong> the farmer to reach the <strong>apple</strong>.,The appearance of the rock <strong>prevented</strong> the farmer from reaching the <strong>apple</strong>.,The appearance of the rock <strong>enabled</strong> the farmer to reach the <strong>apple</strong>.,100,100,0,100,0,Mon Aug 29 2022 13:16:07 GMT-0700 (Pacific Daylight Time),1.66E+12,5.522416667,slider_rating,1,no,no,no,no,no
210,32956,32,,Graduated College,1.66E+12,male,english,images/DOWNHazard100DOWNHazard0.gif,The disappearance of the rock <strong>blocked</strong> the farmer from reaching the <strong>apple</strong>.,The wizard <strong>moved</strong> his wand.,The disappearance of the rock <strong>got</strong> the farmer to reach the <strong>apple</strong>.,The disappearance of the rock <strong>prevented</strong> the farmer from reaching the <strong>apple</strong>.,The disappearance of the rock <strong>enabled</strong> the farmer to reach the <strong>apple</strong>.,0,100,0,0,100,Mon Aug 29 2022 13:16:07 GMT-0700 (Pacific Daylight Time),1.66E+12,5.522416667,slider_rating,2,no,no,no,no,no
210,34509,32,,Graduated College,1.66E+12,male,english,images/DOWNHazard0DOWNHazard100.gif,The appearance of the rock <strong>blocked</strong> the farmer from reaching the <strong>apple</strong>.,The wizard <strong>moved</strong> his wand.,The appearance of the rock <strong>got</strong> the farmer to reach the <strong>apple</strong>.,The appearance of the rock <strong>prevented</strong> the farmer from reaching the <strong>apple</strong>.,The appearance of the rock <strong>enabled</strong> the farmer to reach the <strong>apple</strong>.,100,100,0,100,0,Mon Aug 29 2022 13:16:07 GMT-0700 (Pacific Daylight Time),1.66E+12,5.522416667,slider_rating,3,no,no,no,no,no
210,25467,32,,Graduated College,1.66E+12,male,english,images/DOWNHazard100DOWNHazard100.gif,The presence of the rock <strong>blocked</strong> the farmer from reaching the <strong>apple</strong>.,The wizard <strong>moved</strong> his wand.,The presence of the rock <strong>got</strong> the farmer to reach the <strong>apple</strong>.,The presence of the rock <strong>prevented</strong> the farmer from reaching the <strong>apple</strong>.,The presence of the rock <strong>enabled</strong> the farmer to reach the <strong>apple</strong>.,100,0,0,100,0,Mon Aug 29 2022 13:16:07 GMT-0700 (Pacific Daylight Time),1.66E+12,5.522416667,slider_rating,4,no,no,no,no,no
210,19788,32,,Graduated College,1.66E+12,male,english,images/UPHazard0UPHazard0.gif,The absence of the rock <strong>blocked</strong> the farmer from reaching the <strong>apple</strong>.,The wizard <strong>moved</strong> his wand.,The absence of the rock <strong>got</strong> the farmer to reach the <strong>apple</strong>.,The absence of the rock <strong>prevented</strong> the farmer from reaching the <strong>apple</strong>.,The absence of the rock <strong>enabled</strong> the farmer to reach the <strong>apple</strong>.,0,0,100,0,100,Mon Aug 29 2022 13:16:07 GMT-0700 (Pacific Daylight Time),1.66E+12,5.522416667,slider_rating,5,no,no,no,no,no
210,24333,32,,Graduated College,1.66E+12,male,english,images/DOWNHazard0DOWNHazard0.gif,The absence of the rock <strong>blocked</strong> the farmer from reaching the <strong>apple</strong>.,The wizard <strong>moved</strong> his wand.,The absence of the rock <strong>got</strong> the farmer to reach the <strong>apple</strong>.,The absence of the rock <strong>prevented</strong> the farmer from reaching the <strong>apple</strong>.,The absence of the rock <strong>enabled</strong> the farmer to reach the <strong>apple</strong>.,0,0,0,0,0,Mon Aug 29 2022 13:16:07 GMT-0700 (Pacific Daylight Time),1.66E+12,5.522416667,slider_rating,6,no,no,no,no,no
210,26061,32,,Graduated College,1.66E+12,male,english,images/DOWNHazard100UPHazard0.gif,The disappearance of the rock <strong>blocked</strong> the farmer from reaching the <strong>apple</strong>.,The wizard <strong>moved</strong> his wand.,The disappearance of the rock <strong>got</strong> the farmer to reach the <strong>apple</strong>.,The disappearance of the rock <strong>prevented</strong> the farmer from reaching the <strong>apple</strong>.,The disappearance of the rock <strong>enabled</strong> the farmer to reach the <strong>apple</strong>.,0,100,100,0,100,Mon Aug 29 2022 13:16:07 GMT-0700 (Pacific Daylight Time),1.66E+12,5.522416667,slider_rating,7,no,no,no,no,no
211,30721,34,,Graduated College,1.66E+12,female,english,images/UPHazard0DOWNHazard100.gif,The appearance of the rock <strong>made</strong> the farmer reach the <strong>apple</strong>.,The wizard <strong>moved</strong> his wand.,The appearance of the rock <strong>let</strong> the farmer reach the <strong>apple</strong>.,The appearance of the rock <strong>enabled</strong> the farmer to reach the <strong>apple</strong>.,The appearance of the rock <strong>stopped</strong> the farmer from reaching the <strong>apple</strong>.,0,100,0,0,100,Mon Aug 29 2022 16:29:34 GMT-0400 (Eastern Daylight Time),1.66E+12,4.500383333,slider_rating,1,no,no,no,no,no
211,25135,34,,Graduated College,1.66E+12,female,english,images/DOWNHazard100DOWNHazard100.gif,The presence of the rock <strong>made</strong> the farmer reach the <strong>apple</strong>.,The wizard <strong>moved</strong> his wand.,The presence of the rock <strong>let</strong> the farmer reach the <strong>apple</strong>.,The presence of the rock <strong>enabled</strong> the farmer to reach the <strong>apple</strong>.,The presence of the rock <strong>stopped</strong> the farmer from reaching the <strong>apple</strong>.,0,0,0,0,42,Mon Aug 29 2022 16:29:34 GMT-0400 (Eastern Daylight Time),1.66E+12,4.500383333,slider_rating,2,no,no,no,no,no
211,23808,34,,Graduated College,1.66E+12,female,english,images/DOWNHazard0DOWNHazard100.gif,The appearance of the rock <strong>made</strong> the farmer reach the <strong>apple</strong>.,The wizard <strong>moved</strong> his wand.,The appearance of the rock <strong>let</strong> the farmer reach the <strong>apple</strong>.,The appearance of the rock <strong>enabled</strong> the farmer to reach the <strong>apple</strong>.,The appearance of the rock <strong>stopped</strong> the farmer from reaching the <strong>apple</strong>.,2,100,0,0,69,Mon Aug 29 2022 16:29:34 GMT-0400 (Eastern Daylight Time),1.66E+12,4.500383333,slider_rating,3,no,no,no,no,no
211,32154,34,,Graduated College,1.66E+12,female,english,images/DOWNHazard100UPHazard0.gif,The disappearance of the rock <strong>made</strong> the farmer reach the <strong>apple</strong>.,The wizard <strong>moved</strong> his wand.,The disappearance of the rock <strong>let</strong> the farmer reach the <strong>apple</strong>.,The disappearance of the rock <strong>enabled</strong> the farmer to reach the <strong>apple</strong>.,The disappearance of the rock <strong>stopped</strong> the farmer from reaching the <strong>apple</strong>.,100,100,100,100,0,Mon Aug 29 2022 16:29:34 GMT-0400 (Eastern Daylight Time),1.66E+12,4.500383333,slider_rating,4,no,no,no,no,no
211,27150,34,,Graduated College,1.66E+12,female,english,images/UPHazard0UPHazard0.gif,The absence of the rock <strong>made</strong> the farmer reach the <strong>apple</strong>.,The wizard <strong>moved</strong> his wand.,The absence of the rock <strong>let</strong> the farmer reach the <strong>apple</strong>.,The absence of the rock <strong>enabled</strong> the farmer to reach the <strong>apple</strong>.,The absence of the rock <strong>stopped</strong> the farmer from reaching the <strong>apple</strong>.,88,0,100,97,0,Mon Aug 29 2022 16:29:34 GMT-0400 (Eastern Daylight Time),1.66E+12,4.500383333,slider_rating,5,no,no,no,no,no
211,27586,34,,Graduated College,1.66E+12,female,english,images/DOWNHazard0DOWNHazard0.gif,The absence of the rock <strong>made</strong> the farmer reach the <strong>apple</strong>.,The wizard <strong>moved</strong> his wand.,The absence of the rock <strong>let</strong> the farmer reach the <strong>apple</strong>.,The absence of the rock <strong>enabled</strong> the farmer to reach the <strong>apple</strong>.,The absence of the rock <strong>stopped</strong> the farmer from reaching the <strong>apple</strong>.,0,0,30,32,0,Mon Aug 29 2022 16:29:34 GMT-0400 (Eastern Daylight Time),1.66E+12,4.500383333,slider_rating,6,no,no,no,no,no
211,32963,34,,Graduated College,1.66E+12,female,english,images/DOWNHazard100DOWNHazard0.gif,The disappearance of the rock <strong>made</strong> the farmer reach the <strong>apple</strong>.,The wizard <strong>moved</strong> his wand.,The disappearance of the rock <strong>let</strong> the farmer reach the <strong>apple</strong>.,The disappearance of the rock <strong>enabled</strong> the farmer to reach the <strong>apple</strong>.,The disappearance of the rock <strong>stopped</strong> the farmer from reaching the <strong>apple</strong>.,0,100,65,59,0,Mon Aug 29 2022 16:29:34 GMT-0400 (Eastern Daylight Time),1.66E+12,4.500383333,slider_rating,7,no,no,no,no,no
212,38543,20,,Graduated College,1.66E+12,Male,English,images/UPHazard0DOWNHazard100.gif,The appearance of the rock <strong>allowed</strong> the farmer to reach the <strong>apple</strong>.,The appearance of the rock <strong>prevented</strong> the farmer from reaching the <strong>apple</strong>.,The appearance of the rock <strong>enabled</strong> the farmer to reach the <strong>apple</strong>.,The wizard <strong>moved</strong> his wand.,The appearance of the rock <strong>let</strong> the farmer reach the <strong>apple</strong>.,0,100,0,100,0,Mon Aug 29 2022 16:33:38 GMT-0400 (Eastern Daylight Time),1.66E+12,4.4575,slider_rating,1,no,no,no,no,no
212,47431,20,,Graduated College,1.66E+12,Male,English,images/DOWNHazard0DOWNHazard100.gif,The appearance of the rock <strong>allowed</strong> the farmer to reach the <strong>apple</strong>.,The appearance of the rock <strong>prevented</strong> the farmer from reaching the <strong>apple</strong>.,The appearance of the rock <strong>enabled</strong> the farmer to reach the <strong>apple</strong>.,The wizard <strong>moved</strong> his wand.,The appearance of the rock <strong>let</strong> the farmer reach the <strong>apple</strong>.,0,81,0,100,1,Mon Aug 29 2022 16:33:38 GMT-0400 (Eastern Daylight Time),1.66E+12,4.4575,slider_rating,2,no,no,no,no,no
212,37597,20,,Graduated College,1.66E+12,Male,English,images/DOWNHazard100DOWNHazard0.gif,The disappearance of the rock <strong>allowed</strong> the farmer to reach the <strong>apple</strong>.,The disappearance of the rock <strong>prevented</strong> the farmer from reaching the <strong>apple</strong>.,The disappearance of the rock <strong>enabled</strong> the farmer to reach the <strong>apple</strong>.,The wizard <strong>moved</strong> his wand.,The disappearance of the rock <strong>let</strong> the farmer reach the <strong>apple</strong>.,100,0,100,100,100,Mon Aug 29 2022 16:33:38 GMT-0400 (Eastern Daylight Time),1.66E+12,4.4575,slider_rating,3,no,no,no,no,no
212,24120,20,,Graduated College,1.66E+12,Male,English,images/DOWNHazard0DOWNHazard0.gif,The absence of the rock <strong>allowed</strong> the farmer to reach the <strong>apple</strong>.,The absence of the rock <strong>prevented</strong> the farmer from reaching the <strong>apple</strong>.,The absence of the rock <strong>enabled</strong> the farmer to reach the <strong>apple</strong>.,The wizard <strong>moved</strong> his wand.,The absence of the rock <strong>let</strong> the farmer reach the <strong>apple</strong>.,100,0,100,0,100,Mon Aug 29 2022 16:33:38 GMT-0400 (Eastern Daylight Time),1.66E+12,4.4575,slider_rating,4,no,no,no,no,no
212,17153,20,,Graduated College,1.66E+12,Male,English,images/UPHazard0UPHazard0.gif,The absence of the rock <strong>allowed</strong> the farmer to reach the <strong>apple</strong>.,The absence of the rock <strong>prevented</strong> the farmer from reaching the <strong>apple</strong>.,The absence of the rock <strong>enabled</strong> the farmer to reach the <strong>apple</strong>.,The wizard <strong>moved</strong> his wand.,The absence of the rock <strong>let</strong> the farmer reach the <strong>apple</strong>.,100,0,100,0,100,Mon Aug 29 2022 16:33:38 GMT-0400 (Eastern Daylight Time),1.66E+12,4.4575,slider_rating,5,no,no,no,no,no
212,20909,20,,Graduated College,1.66E+12,Male,English,images/DOWNHazard100UPHazard0.gif,The disappearance of the rock <strong>allowed</strong> the farmer to reach the <strong>apple</strong>.,The disappearance of the rock <strong>prevented</strong> the farmer from reaching the <strong>apple</strong>.,The disappearance of the rock <strong>enabled</strong> the farmer to reach the <strong>apple</strong>.,The wizard <strong>moved</strong> his wand.,The disappearance of the rock <strong>let</strong> the farmer reach the <strong>apple</strong>.,100,0,100,100,100,Mon Aug 29 2022 16:33:38 GMT-0400 (Eastern Daylight Time),1.66E+12,4.4575,slider_rating,6,no,no,no,no,no
212,21300,20,,Graduated College,1.66E+12,Male,English,images/DOWNHazard100DOWNHazard100.gif,The presence of the rock <strong>allowed</strong> the farmer to reach the <strong>apple</strong>.,The presence of the rock <strong>prevented</strong> the farmer from reaching the <strong>apple</strong>.,The presence of the rock <strong>enabled</strong> the farmer to reach the <strong>apple</strong>.,The wizard <strong>moved</strong> his wand.,The presence of the rock <strong>let</strong> the farmer reach the <strong>apple</strong>.,0,100,0,0,0,Mon Aug 29 2022 16:33:38 GMT-0400 (Eastern Daylight Time),1.66E+12,4.4575,slider_rating,7,no,no,no,no,no
213,25075,34,,Graduated College,1.66E+12,Male,English,images/UPHazard0DOWNHazard100.gif,The appearance of the rock <strong>stopped</strong> the farmer from reaching the <strong>apple</strong>.,The wizard <strong>moved</strong> his wand.,The appearance of the rock <strong>allowed</strong> the farmer to reach the <strong>apple</strong>.,The appearance of the rock <strong>prevented</strong> the farmer from reaching the <strong>apple</strong>.,The appearance of the rock <strong>got</strong> the farmer to reach the <strong>apple</strong>.,100,100,0,100,0,Mon Aug 29 2022 16:34:26 GMT-0400 (Eastern Daylight Time),1.66E+12,4.079033333,slider_rating,1,no,no,no,no,no
213,23771,34,,Graduated College,1.66E+12,Male,English,images/UPHazard0UPHazard0.gif,The absence of the rock <strong>stopped</strong> the farmer from reaching the <strong>apple</strong>.,The wizard <strong>moved</strong> his wand.,The absence of the rock <strong>allowed</strong> the farmer to reach the <strong>apple</strong>.,The absence of the rock <strong>prevented</strong> the farmer from reaching the <strong>apple</strong>.,The absence of the rock <strong>got</strong> the farmer to reach the <strong>apple</strong>.,0,0,100,0,100,Mon Aug 29 2022 16:34:26 GMT-0400 (Eastern Daylight Time),1.66E+12,4.079033333,slider_rating,2,no,no,no,no,no
213,27307,34,,Graduated College,1.66E+12,Male,English,images/DOWNHazard100UPHazard0.gif,The disappearance of the rock <strong>stopped</strong> the farmer from reaching the <strong>apple</strong>.,The wizard <strong>moved</strong> his wand.,The disappearance of the rock <strong>allowed</strong> the farmer to reach the <strong>apple</strong>.,The disappearance of the rock <strong>prevented</strong> the farmer from reaching the <strong>apple</strong>.,The disappearance of the rock <strong>got</strong> the farmer to reach the <strong>apple</strong>.,0,100,100,0,36,Mon Aug 29 2022 16:34:26 GMT-0400 (Eastern Daylight Time),1.66E+12,4.079033333,slider_rating,3,no,no,no,no,no
213,24242,34,,Graduated College,1.66E+12,Male,English,images/DOWNHazard0DOWNHazard0.gif,The absence of the rock <strong>stopped</strong> the farmer from reaching the <strong>apple</strong>.,The wizard <strong>moved</strong> his wand.,The absence of the rock <strong>allowed</strong> the farmer to reach the <strong>apple</strong>.,The absence of the rock <strong>prevented</strong> the farmer from reaching the <strong>apple</strong>.,The absence of the rock <strong>got</strong> the farmer to reach the <strong>apple</strong>.,0,0,0,0,0,Mon Aug 29 2022 16:34:26 GMT-0400 (Eastern Daylight Time),1.66E+12,4.079033333,slider_rating,4,no,no,no,no,no
213,22404,34,,Graduated College,1.66E+12,Male,English,images/DOWNHazard100DOWNHazard100.gif,The presence of the rock <strong>stopped</strong> the farmer from reaching the <strong>apple</strong>.,The wizard <strong>moved</strong> his wand.,The presence of the rock <strong>allowed</strong> the farmer to reach the <strong>apple</strong>.,The presence of the rock <strong>prevented</strong> the farmer from reaching the <strong>apple</strong>.,The presence of the rock <strong>got</strong> the farmer to reach the <strong>apple</strong>.,0,0,0,29,0,Mon Aug 29 2022 16:34:26 GMT-0400 (Eastern Daylight Time),1.66E+12,4.079033333,slider_rating,5,no,no,no,no,no
213,23306,34,,Graduated College,1.66E+12,Male,English,images/DOWNHazard0DOWNHazard100.gif,The appearance of the rock <strong>stopped</strong> the farmer from reaching the <strong>apple</strong>.,The wizard <strong>moved</strong> his wand.,The appearance of the rock <strong>allowed</strong> the farmer to reach the <strong>apple</strong>.,The appearance of the rock <strong>prevented</strong> the farmer from reaching the <strong>apple</strong>.,The appearance of the rock <strong>got</strong> the farmer to reach the <strong>apple</strong>.,0,100,0,0,0,Mon Aug 29 2022 16:34:26 GMT-0400 (Eastern Daylight Time),1.66E+12,4.079033333,slider_rating,6,no,no,no,no,no
213,23020,34,,Graduated College,1.66E+12,Male,English,images/DOWNHazard100DOWNHazard0.gif,The disappearance of the rock <strong>stopped</strong> the farmer from reaching the <strong>apple</strong>.,The wizard <strong>moved</strong> his wand.,The disappearance of the rock <strong>allowed</strong> the farmer to reach the <strong>apple</strong>.,The disappearance of the rock <strong>prevented</strong> the farmer from reaching the <strong>apple</strong>.,The disappearance of the rock <strong>got</strong> the farmer to reach the <strong>apple</strong>.,0,100,71,0,0,Mon Aug 29 2022 16:34:26 GMT-0400 (Eastern Daylight Time),1.66E+12,4.079033333,slider_rating,7,no,no,no,no,no
214,26381,46,,Graduated College,1.66E+12,m,english,images/UPHazard0DOWNHazard100.gif,The appearance of the rock <strong>made</strong> the farmer reach the <strong>apple</strong>.,The appearance of the rock <strong>prevented</strong> the farmer from reaching the <strong>apple</strong>.,The appearance of the rock <strong>got</strong> the farmer to reach the <strong>apple</strong>.,The appearance of the rock <strong>caused</strong> the farmer to reach the <strong>apple</strong>.,The wizard <strong>moved</strong> his wand.,0,100,0,0,81,Mon Aug 29 2022 15:35:59 GMT-0500 (Central Daylight Time),1.66E+12,4.305266667,slider_rating,1,no,no,no,no,no
214,28040,46,,Graduated College,1.66E+12,m,english,images/DOWNHazard100UPHazard0.gif,The disappearance of the rock <strong>made</strong> the farmer reach the <strong>apple</strong>.,The disappearance of the rock <strong>prevented</strong> the farmer from reaching the <strong>apple</strong>.,The disappearance of the rock <strong>got</strong> the farmer to reach the <strong>apple</strong>.,The disappearance of the rock <strong>caused</strong> the farmer to reach the <strong>apple</strong>.,The wizard <strong>moved</strong> his wand.,75,2,67,54,90,Mon Aug 29 2022 15:35:59 GMT-0500 (Central Daylight Time),1.66E+12,4.305266667,slider_rating,2,no,no,no,no,no
214,30361,46,,Graduated College,1.66E+12,m,english,images/DOWNHazard100DOWNHazard100.gif,The presence of the rock <strong>made</strong> the farmer reach the <strong>apple</strong>.,The presence of the rock <strong>prevented</strong> the farmer from reaching the <strong>apple</strong>.,The presence of the rock <strong>got</strong> the farmer to reach the <strong>apple</strong>.,The presence of the rock <strong>caused</strong> the farmer to reach the <strong>apple</strong>.,The wizard <strong>moved</strong> his wand.,0,74,0,0,0,Mon Aug 29 2022 15:35:59 GMT-0500 (Central Daylight Time),1.66E+12,4.305266667,slider_rating,3,no,no,no,no,no
214,24078,46,,Graduated College,1.66E+12,m,english,images/DOWNHazard0DOWNHazard0.gif,The absence of the rock <strong>made</strong> the farmer reach the <strong>apple</strong>.,The absence of the rock <strong>prevented</strong> the farmer from reaching the <strong>apple</strong>.,The absence of the rock <strong>got</strong> the farmer to reach the <strong>apple</strong>.,The absence of the rock <strong>caused</strong> the farmer to reach the <strong>apple</strong>.,The wizard <strong>moved</strong> his wand.,1,11,6,2,7,Mon Aug 29 2022 15:35:59 GMT-0500 (Central Daylight Time),1.66E+12,4.305266667,slider_rating,4,no,no,no,no,no
214,24393,46,,Graduated College,1.66E+12,m,english,images/DOWNHazard0DOWNHazard100.gif,The appearance of the rock <strong>made</strong> the farmer reach the <strong>apple</strong>.,The appearance of the rock <strong>prevented</strong> the farmer from reaching the <strong>apple</strong>.,The appearance of the rock <strong>got</strong> the farmer to reach the <strong>apple</strong>.,The appearance of the rock <strong>caused</strong> the farmer to reach the <strong>apple</strong>.,The wizard <strong>moved</strong> his wand.,10,65,14,10,92,Mon Aug 29 2022 15:35:59 GMT-0500 (Central Daylight Time),1.66E+12,4.305266667,slider_rating,5,no,no,no,no,no
214,28416,46,,Graduated College,1.66E+12,m,english,images/UPHazard0UPHazard0.gif,The absence of the rock <strong>made</strong> the farmer reach the <strong>apple</strong>.,The absence of the rock <strong>prevented</strong> the farmer from reaching the <strong>apple</strong>.,The absence of the rock <strong>got</strong> the farmer to reach the <strong>apple</strong>.,The absence of the rock <strong>caused</strong> the farmer to reach the <strong>apple</strong>.,The wizard <strong>moved</strong> his wand.,73,0,69,91,4,Mon Aug 29 2022 15:35:59 GMT-0500 (Central Daylight Time),1.66E+12,4.305266667,slider_rating,6,no,no,no,no,no
214,19482,46,,Graduated College,1.66E+12,m,english,images/DOWNHazard100DOWNHazard0.gif,The disappearance of the rock <strong>made</strong> the farmer reach the <strong>apple</strong>.,The disappearance of the rock <strong>prevented</strong> the farmer from reaching the <strong>apple</strong>.,The disappearance of the rock <strong>got</strong> the farmer to reach the <strong>apple</strong>.,The disappearance of the rock <strong>caused</strong> the farmer to reach the <strong>apple</strong>.,The wizard <strong>moved</strong> his wand.,5,9,8,9,92,Mon Aug 29 2022 15:35:59 GMT-0500 (Central Daylight Time),1.66E+12,4.305266667,slider_rating,7,no,no,no,no,no
216,34400,66,,Graduated High School,1.66E+12,male,english,images/UPHazard0DOWNHazard100.gif,The appearance of the rock <strong>got</strong> the farmer to reach the <strong>apple</strong>.,The appearance of the rock <strong>blocked</strong> the farmer from reaching the <strong>apple</strong>.,The appearance of the rock <strong>let</strong> the farmer reach the <strong>apple</strong>.,The wizard <strong>moved</strong> his wand.,The appearance of the rock <strong>caused</strong> the farmer to reach the <strong>apple</strong>.,0,100,0,100,0,Mon Aug 29 2022 16:35:01 GMT-0400 (Eastern Daylight Time),1.66E+12,8.114483333,slider_rating,1,no,no,no,no,no
216,46973,66,,Graduated High School,1.66E+12,male,english,images/DOWNHazard100UPHazard0.gif,The disappearance of the rock <strong>got</strong> the farmer to reach the <strong>apple</strong>.,The disappearance of the rock <strong>blocked</strong> the farmer from reaching the <strong>apple</strong>.,The disappearance of the rock <strong>let</strong> the farmer reach the <strong>apple</strong>.,The wizard <strong>moved</strong> his wand.,The disappearance of the rock <strong>caused</strong> the farmer to reach the <strong>apple</strong>.,100,0,100,100,19,Mon Aug 29 2022 16:35:01 GMT-0400 (Eastern Daylight Time),1.66E+12,8.114483333,slider_rating,2,no,no,no,no,no
216,27838,66,,Graduated High School,1.66E+12,male,english,images/DOWNHazard100DOWNHazard100.gif,The presence of the rock <strong>got</strong> the farmer to reach the <strong>apple</strong>.,The presence of the rock <strong>blocked</strong> the farmer from reaching the <strong>apple</strong>.,The presence of the rock <strong>let</strong> the farmer reach the <strong>apple</strong>.,The wizard <strong>moved</strong> his wand.,The presence of the rock <strong>caused</strong> the farmer to reach the <strong>apple</strong>.,0,0,0,0,0,Mon Aug 29 2022 16:35:01 GMT-0400 (Eastern Daylight Time),1.66E+12,8.114483333,slider_rating,3,no,no,no,no,no
216,24535,66,,Graduated High School,1.66E+12,male,english,images/DOWNHazard0DOWNHazard100.gif,The appearance of the rock <strong>got</strong> the farmer to reach the <strong>apple</strong>.,The appearance of the rock <strong>blocked</strong> the farmer from reaching the <strong>apple</strong>.,The appearance of the rock <strong>let</strong> the farmer reach the <strong>apple</strong>.,The wizard <strong>moved</strong> his wand.,The appearance of the rock <strong>caused</strong> the farmer to reach the <strong>apple</strong>.,0,0,0,100,0,Mon Aug 29 2022 16:35:01 GMT-0400 (Eastern Daylight Time),1.66E+12,8.114483333,slider_rating,4,no,no,no,no,no
216,21023,66,,Graduated High School,1.66E+12,male,english,images/DOWNHazard100DOWNHazard0.gif,The disappearance of the rock <strong>got</strong> the farmer to reach the <strong>apple</strong>.,The disappearance of the rock <strong>blocked</strong> the farmer from reaching the <strong>apple</strong>.,The disappearance of the rock <strong>let</strong> the farmer reach the <strong>apple</strong>.,The wizard <strong>moved</strong> his wand.,The disappearance of the rock <strong>caused</strong> the farmer to reach the <strong>apple</strong>.,0,0,0,100,0,Mon Aug 29 2022 16:35:01 GMT-0400 (Eastern Daylight Time),1.66E+12,8.114483333,slider_rating,5,no,no,no,no,no
216,33950,66,,Graduated High School,1.66E+12,male,english,images/UPHazard0UPHazard0.gif,The absence of the rock <strong>got</strong> the farmer to reach the <strong>apple</strong>.,The absence of the rock <strong>blocked</strong> the farmer from reaching the <strong>apple</strong>.,The absence of the rock <strong>let</strong> the farmer reach the <strong>apple</strong>.,The wizard <strong>moved</strong> his wand.,The absence of the rock <strong>caused</strong> the farmer to reach the <strong>apple</strong>.,71,0,100,0,2,Mon Aug 29 2022 16:35:01 GMT-0400 (Eastern Daylight Time),1.66E+12,8.114483333,slider_rating,6,no,no,no,no,no
216,27558,66,,Graduated High School,1.66E+12,male,english,images/DOWNHazard0DOWNHazard0.gif,The absence of the rock <strong>got</strong> the farmer to reach the <strong>apple</strong>.,The absence of the rock <strong>blocked</strong> the farmer from reaching the <strong>apple</strong>.,The absence of the rock <strong>let</strong> the farmer reach the <strong>apple</strong>.,The wizard <strong>moved</strong> his wand.,The absence of the rock <strong>caused</strong> the farmer to reach the <strong>apple</strong>.,0,0,0,0,0,Mon Aug 29 2022 16:35:01 GMT-0400 (Eastern Daylight Time),1.66E+12,8.114483333,slider_rating,7,no,no,no,no,no
221,50389,28,none,Graduated High School,1.66E+12,female,english,images/UPHazard0DOWNHazard100.gif,The appearance of the rock <strong>caused</strong> the farmer to reach the <strong>apple</strong>.,The appearance of the rock <strong>allowed</strong> the farmer to reach the <strong>apple</strong>.,The appearance of the rock <strong>prevented</strong> the farmer from reaching the <strong>apple</strong>.,The appearance of the rock <strong>enabled</strong> the farmer to reach the <strong>apple</strong>.,The wizard <strong>moved</strong> his wand.,0,0,100,0,100,Mon Aug 29 2022 15:54:20 GMT-0500 (Central Daylight Time),1.66E+12,5.948583333,slider_rating,1,no,no,no,no,no
221,55454,28,none,Graduated High School,1.66E+12,female,english,images/DOWNHazard0DOWNHazard0.gif,The absence of the rock <strong>caused</strong> the farmer to reach the <strong>apple</strong>.,The absence of the rock <strong>allowed</strong> the farmer to reach the <strong>apple</strong>.,The absence of the rock <strong>prevented</strong> the farmer from reaching the <strong>apple</strong>.,The absence of the rock <strong>enabled</strong> the farmer to reach the <strong>apple</strong>.,The wizard <strong>moved</strong> his wand.,6,17,0,16,0,Mon Aug 29 2022 15:54:20 GMT-0500 (Central Daylight Time),1.66E+12,5.948583333,slider_rating,2,no,no,no,no,no
221,33700,28,none,Graduated High School,1.66E+12,female,english,images/DOWNHazard100UPHazard0.gif,The disappearance of the rock <strong>caused</strong> the farmer to reach the <strong>apple</strong>.,The disappearance of the rock <strong>allowed</strong> the farmer to reach the <strong>apple</strong>.,The disappearance of the rock <strong>prevented</strong> the farmer from reaching the <strong>apple</strong>.,The disappearance of the rock <strong>enabled</strong> the farmer to reach the <strong>apple</strong>.,The wizard <strong>moved</strong> his wand.,36,98,0,100,100,Mon Aug 29 2022 15:54:20 GMT-0500 (Central Daylight Time),1.66E+12,5.948583333,slider_rating,3,no,no,no,no,no
221,37973,28,none,Graduated High School,1.66E+12,female,english,images/DOWNHazard100DOWNHazard100.gif,The presence of the rock <strong>caused</strong> the farmer to reach the <strong>apple</strong>.,The presence of the rock <strong>allowed</strong> the farmer to reach the <strong>apple</strong>.,The presence of the rock <strong>prevented</strong> the farmer from reaching the <strong>apple</strong>.,The presence of the rock <strong>enabled</strong> the farmer to reach the <strong>apple</strong>.,The wizard <strong>moved</strong> his wand.,0,0,100,0,0,Mon Aug 29 2022 15:54:20 GMT-0500 (Central Daylight Time),1.66E+12,5.948583333,slider_rating,4,no,no,no,no,no
221,35369,28,none,Graduated High School,1.66E+12,female,english,images/UPHazard0UPHazard0.gif,The absence of the rock <strong>caused</strong> the farmer to reach the <strong>apple</strong>.,The absence of the rock <strong>allowed</strong> the farmer to reach the <strong>apple</strong>.,The absence of the rock <strong>prevented</strong> the farmer from reaching the <strong>apple</strong>.,The absence of the rock <strong>enabled</strong> the farmer to reach the <strong>apple</strong>.,The wizard <strong>moved</strong> his wand.,62,100,0,92,0,Mon Aug 29 2022 15:54:20 GMT-0500 (Central Daylight Time),1.66E+12,5.948583333,slider_rating,5,no,no,no,no,no
221,35534,28,none,Graduated High School,1.66E+12,female,english,images/DOWNHazard0DOWNHazard100.gif,The appearance of the rock <strong>caused</strong> the farmer to reach the <strong>apple</strong>.,The appearance of the rock <strong>allowed</strong> the farmer to reach the <strong>apple</strong>.,The appearance of the rock <strong>prevented</strong> the farmer from reaching the <strong>apple</strong>.,The appearance of the rock <strong>enabled</strong> the farmer to reach the <strong>apple</strong>.,The wizard <strong>moved</strong> his wand.,0,0,81,0,100,Mon Aug 29 2022 15:54:20 GMT-0500 (Central Daylight Time),1.66E+12,5.948583333,slider_rating,6,no,no,no,no,no
221,27081,28,none,Graduated High School,1.66E+12,female,english,images/DOWNHazard100DOWNHazard0.gif,The disappearance of the rock <strong>caused</strong> the farmer to reach the <strong>apple</strong>.,The disappearance of the rock <strong>allowed</strong> the farmer to reach the <strong>apple</strong>.,The disappearance of the rock <strong>prevented</strong> the farmer from reaching the <strong>apple</strong>.,The disappearance of the rock <strong>enabled</strong> the farmer to reach the <strong>apple</strong>.,The wizard <strong>moved</strong> his wand.,7,61,1,64,100,Mon Aug 29 2022 15:54:20 GMT-0500 (Central Daylight Time),1.66E+12,5.948583333,slider_rating,7,no,no,no,no,no
239,31995,31,,Graduated College,1.66E+12,f,english,images/UPHazard0DOWNHazard100.gif,The wizard <strong>moved</strong> his wand.,The appearance of the rock <strong>prevented</strong> the farmer from reaching the <strong>apple</strong>.,The appearance of the rock <strong>made</strong> the farmer reach the <strong>apple</strong>.,The appearance of the rock <strong>got</strong> the farmer to reach the <strong>apple</strong>.,The appearance of the rock <strong>stopped</strong> the farmer from reaching the <strong>apple</strong>.,100,100,0,0,100,Mon Aug 29 2022 17:05:09 GMT-0400 (Eastern Daylight Time),1.66E+12,4.397616667,slider_rating,1,no,no,no,no,no
239,21779,31,,Graduated College,1.66E+12,f,english,images/DOWNHazard0DOWNHazard100.gif,The wizard <strong>moved</strong> his wand.,The appearance of the rock <strong>prevented</strong> the farmer from reaching the <strong>apple</strong>.,The appearance of the rock <strong>made</strong> the farmer reach the <strong>apple</strong>.,The appearance of the rock <strong>got</strong> the farmer to reach the <strong>apple</strong>.,The appearance of the rock <strong>stopped</strong> the farmer from reaching the <strong>apple</strong>.,100,100,0,0,100,Mon Aug 29 2022 17:05:09 GMT-0400 (Eastern Daylight Time),1.66E+12,4.397616667,slider_rating,2,no,no,no,no,no
239,36713,31,,Graduated College,1.66E+12,f,english,images/DOWNHazard0DOWNHazard0.gif,The wizard <strong>moved</strong> his wand.,The absence of the rock <strong>prevented</strong> the farmer from reaching the <strong>apple</strong>.,The absence of the rock <strong>made</strong> the farmer reach the <strong>apple</strong>.,The absence of the rock <strong>got</strong> the farmer to reach the <strong>apple</strong>.,The absence of the rock <strong>stopped</strong> the farmer from reaching the <strong>apple</strong>.,0,0,0,0,0,Mon Aug 29 2022 17:05:09 GMT-0400 (Eastern Daylight Time),1.66E+12,4.397616667,slider_rating,3,no,no,no,no,no
239,49059,31,,Graduated College,1.66E+12,f,english,images/UPHazard0UPHazard0.gif,The wizard <strong>moved</strong> his wand.,The absence of the rock <strong>prevented</strong> the farmer from reaching the <strong>apple</strong>.,The absence of the rock <strong>made</strong> the farmer reach the <strong>apple</strong>.,The absence of the rock <strong>got</strong> the farmer to reach the <strong>apple</strong>.,The absence of the rock <strong>stopped</strong> the farmer from reaching the <strong>apple</strong>.,0,0,54,100,0,Mon Aug 29 2022 17:05:09 GMT-0400 (Eastern Daylight Time),1.66E+12,4.397616667,slider_rating,4,no,no,no,no,no
239,20923,31,,Graduated College,1.66E+12,f,english,images/DOWNHazard100UPHazard0.gif,The wizard <strong>moved</strong> his wand.,The disappearance of the rock <strong>prevented</strong> the farmer from reaching the <strong>apple</strong>.,The disappearance of the rock <strong>made</strong> the farmer reach the <strong>apple</strong>.,The disappearance of the rock <strong>got</strong> the farmer to reach the <strong>apple</strong>.,The disappearance of the rock <strong>stopped</strong> the farmer from reaching the <strong>apple</strong>.,100,0,100,100,0,Mon Aug 29 2022 17:05:09 GMT-0400 (Eastern Daylight Time),1.66E+12,4.397616667,slider_rating,5,no,no,no,no,no
239,24382,31,,Graduated College,1.66E+12,f,english,images/DOWNHazard100DOWNHazard100.gif,The wizard <strong>moved</strong> his wand.,The presence of the rock <strong>prevented</strong> the farmer from reaching the <strong>apple</strong>.,The presence of the rock <strong>made</strong> the farmer reach the <strong>apple</strong>.,The presence of the rock <strong>got</strong> the farmer to reach the <strong>apple</strong>.,The presence of the rock <strong>stopped</strong> the farmer from reaching the <strong>apple</strong>.,0,100,0,0,100,Mon Aug 29 2022 17:05:09 GMT-0400 (Eastern Daylight Time),1.66E+12,4.397616667,slider_rating,6,no,no,no,no,no
239,22673,31,,Graduated College,1.66E+12,f,english,images/DOWNHazard100DOWNHazard0.gif,The wizard <strong>moved</strong> his wand.,The disappearance of the rock <strong>prevented</strong> the farmer from reaching the <strong>apple</strong>.,The disappearance of the rock <strong>made</strong> the farmer reach the <strong>apple</strong>.,The disappearance of the rock <strong>got</strong> the farmer to reach the <strong>apple</strong>.,The disappearance of the rock <strong>stopped</strong> the farmer from reaching the <strong>apple</strong>.,100,0,0,0,0,Mon Aug 29 2022 17:05:09 GMT-0400 (Eastern Daylight Time),1.66E+12,4.397616667,slider_rating,7,no,no,no,no,no
215,56296,31,"None, everything worked well.",Higher Degree,1.66E+12,female,English,images/UPHazard0DOWNHazard100.gif,The appearance of the rock <strong>let</strong> the farmer reach the <strong>apple</strong>.,The appearance of the rock <strong>got</strong> the farmer to reach the <strong>apple</strong>.,The appearance of the rock <strong>blocked</strong> the farmer from reaching the <strong>apple</strong>.,The appearance of the rock <strong>made</strong> the farmer reach the <strong>apple</strong>.,The wizard <strong>moved</strong> his wand.,0,0,90,9,88,Mon Aug 29 2022 14:34:17 GMT-0600 (Mountain Daylight Time),1.66E+12,6.456433333,slider_rating,1,no,no,no,no,no
215,33646,31,"None, everything worked well.",Higher Degree,1.66E+12,female,English,images/UPHazard0UPHazard0.gif,The absence of the rock <strong>let</strong> the farmer reach the <strong>apple</strong>.,The absence of the rock <strong>got</strong> the farmer to reach the <strong>apple</strong>.,The absence of the rock <strong>blocked</strong> the farmer from reaching the <strong>apple</strong>.,The absence of the rock <strong>made</strong> the farmer reach the <strong>apple</strong>.,The wizard <strong>moved</strong> his wand.,97,74,4,70,0,Mon Aug 29 2022 14:34:17 GMT-0600 (Mountain Daylight Time),1.66E+12,6.456433333,slider_rating,2,no,no,no,no,no
215,35696,31,"None, everything worked well.",Higher Degree,1.66E+12,female,English,images/DOWNHazard100UPHazard0.gif,The disappearance of the rock <strong>let</strong> the farmer reach the <strong>apple</strong>.,The disappearance of the rock <strong>got</strong> the farmer to reach the <strong>apple</strong>.,The disappearance of the rock <strong>blocked</strong> the farmer from reaching the <strong>apple</strong>.,The disappearance of the rock <strong>made</strong> the farmer reach the <strong>apple</strong>.,The wizard <strong>moved</strong> his wand.,88,88,8,80,95,Mon Aug 29 2022 14:34:17 GMT-0600 (Mountain Daylight Time),1.66E+12,6.456433333,slider_rating,3,no,no,no,no,no
215,28814,31,"None, everything worked well.",Higher Degree,1.66E+12,female,English,images/DOWNHazard100DOWNHazard0.gif,The disappearance of the rock <strong>let</strong> the farmer reach the <strong>apple</strong>.,The disappearance of the rock <strong>got</strong> the farmer to reach the <strong>apple</strong>.,The disappearance of the rock <strong>blocked</strong> the farmer from reaching the <strong>apple</strong>.,The disappearance of the rock <strong>made</strong> the farmer reach the <strong>apple</strong>.,The wizard <strong>moved</strong> his wand.,60,0,2,0,91,Mon Aug 29 2022 14:34:17 GMT-0600 (Mountain Daylight Time),1.66E+12,6.456433333,slider_rating,4,no,no,no,no,no
215,28302,31,"None, everything worked well.",Higher Degree,1.66E+12,female,English,images/DOWNHazard0DOWNHazard100.gif,The appearance of the rock <strong>let</strong> the farmer reach the <strong>apple</strong>.,The appearance of the rock <strong>got</strong> the farmer to reach the <strong>apple</strong>.,The appearance of the rock <strong>blocked</strong> the farmer from reaching the <strong>apple</strong>.,The appearance of the rock <strong>made</strong> the farmer reach the <strong>apple</strong>.,The wizard <strong>moved</strong> his wand.,0,0,97,0,98,Mon Aug 29 2022 14:34:17 GMT-0600 (Mountain Daylight Time),1.66E+12,6.456433333,slider_rating,5,no,no,no,no,no
215,48893,31,"None, everything worked well.",Higher Degree,1.66E+12,female,English,images/DOWNHazard0DOWNHazard0.gif,The absence of the rock <strong>let</strong> the farmer reach the <strong>apple</strong>.,The absence of the rock <strong>got</strong> the farmer to reach the <strong>apple</strong>.,The absence of the rock <strong>blocked</strong> the farmer from reaching the <strong>apple</strong>.,The absence of the rock <strong>made</strong> the farmer reach the <strong>apple</strong>.,The wizard <strong>moved</strong> his wand.,57,0,0,0,3,Mon Aug 29 2022 14:34:17 GMT-0600 (Mountain Daylight Time),1.66E+12,6.456433333,slider_rating,6,no,no,no,no,no
215,59768,31,"None, everything worked well.",Higher Degree,1.66E+12,female,English,images/DOWNHazard100DOWNHazard100.gif,The presence of the rock <strong>let</strong> the farmer reach the <strong>apple</strong>.,The presence of the rock <strong>got</strong> the farmer to reach the <strong>apple</strong>.,The presence of the rock <strong>blocked</strong> the farmer from reaching the <strong>apple</strong>.,The presence of the rock <strong>made</strong> the farmer reach the <strong>apple</strong>.,The wizard <strong>moved</strong> his wand.,2,0,86,0,0,Mon Aug 29 2022 14:34:17 GMT-0600 (Mountain Daylight Time),1.66E+12,6.456433333,slider_rating,7,no,no,no,no,no
217,31895,31,,Graduated College,1.66E+12,female,English,images/UPHazard0DOWNHazard100.gif,The wizard <strong>moved</strong> his wand.,The appearance of the rock <strong>got</strong> the farmer to reach the <strong>apple</strong>.,The appearance of the rock <strong>caused</strong> the farmer to reach the <strong>apple</strong>.,The appearance of the rock <strong>made</strong> the farmer reach the <strong>apple</strong>.,The appearance of the rock <strong>allowed</strong> the farmer to reach the <strong>apple</strong>.,81,0,0,0,0,Mon Aug 29 2022 16:40:36 GMT-0400 (Eastern Daylight Time),1.66E+12,4.93075,slider_rating,1,no,no,no,no,no
217,35278,31,,Graduated College,1.66E+12,female,English,images/UPHazard0UPHazard0.gif,The wizard <strong>moved</strong> his wand.,The absence of the rock <strong>got</strong> the farmer to reach the <strong>apple</strong>.,The absence of the rock <strong>caused</strong> the farmer to reach the <strong>apple</strong>.,The absence of the rock <strong>made</strong> the farmer reach the <strong>apple</strong>.,The absence of the rock <strong>allowed</strong> the farmer to reach the <strong>apple</strong>.,0,100,100,67,100,Mon Aug 29 2022 16:40:36 GMT-0400 (Eastern Daylight Time),1.66E+12,4.93075,slider_rating,2,no,no,no,no,no
217,22110,31,,Graduated College,1.66E+12,female,English,images/DOWNHazard100DOWNHazard100.gif,The wizard <strong>moved</strong> his wand.,The presence of the rock <strong>got</strong> the farmer to reach the <strong>apple</strong>.,The presence of the rock <strong>caused</strong> the farmer to reach the <strong>apple</strong>.,The presence of the rock <strong>made</strong> the farmer reach the <strong>apple</strong>.,The presence of the rock <strong>allowed</strong> the farmer to reach the <strong>apple</strong>.,0,0,0,0,0,Mon Aug 29 2022 16:40:36 GMT-0400 (Eastern Daylight Time),1.66E+12,4.93075,slider_rating,3,no,no,no,no,no
217,37942,31,,Graduated College,1.66E+12,female,English,images/DOWNHazard100UPHazard0.gif,The wizard <strong>moved</strong> his wand.,The disappearance of the rock <strong>got</strong> the farmer to reach the <strong>apple</strong>.,The disappearance of the rock <strong>caused</strong> the farmer to reach the <strong>apple</strong>.,The disappearance of the rock <strong>made</strong> the farmer reach the <strong>apple</strong>.,The disappearance of the rock <strong>allowed</strong> the farmer to reach the <strong>apple</strong>.,100,21,0,15,67,Mon Aug 29 2022 16:40:36 GMT-0400 (Eastern Daylight Time),1.66E+12,4.93075,slider_rating,4,no,no,no,no,no
217,29727,31,,Graduated College,1.66E+12,female,English,images/DOWNHazard0DOWNHazard100.gif,The wizard <strong>moved</strong> his wand.,The appearance of the rock <strong>got</strong> the farmer to reach the <strong>apple</strong>.,The appearance of the rock <strong>caused</strong> the farmer to reach the <strong>apple</strong>.,The appearance of the rock <strong>made</strong> the farmer reach the <strong>apple</strong>.,The appearance of the rock <strong>allowed</strong> the farmer to reach the <strong>apple</strong>.,100,2,0,0,0,Mon Aug 29 2022 16:40:36 GMT-0400 (Eastern Daylight Time),1.66E+12,4.93075,slider_rating,5,no,no,no,no,no
217,22655,31,,Graduated College,1.66E+12,female,English,images/DOWNHazard0DOWNHazard0.gif,The wizard <strong>moved</strong> his wand.,The absence of the rock <strong>got</strong> the farmer to reach the <strong>apple</strong>.,The absence of the rock <strong>caused</strong> the farmer to reach the <strong>apple</strong>.,The absence of the rock <strong>made</strong> the farmer reach the <strong>apple</strong>.,The absence of the rock <strong>allowed</strong> the farmer to reach the <strong>apple</strong>.,0,0,0,0,77,Mon Aug 29 2022 16:40:36 GMT-0400 (Eastern Daylight Time),1.66E+12,4.93075,slider_rating,6,no,no,no,no,no
217,53870,31,,Graduated College,1.66E+12,female,English,images/DOWNHazard100DOWNHazard0.gif,The wizard <strong>moved</strong> his wand.,The disappearance of the rock <strong>got</strong> the farmer to reach the <strong>apple</strong>.,The disappearance of the rock <strong>caused</strong> the farmer to reach the <strong>apple</strong>.,The disappearance of the rock <strong>made</strong> the farmer reach the <strong>apple</strong>.,The disappearance of the rock <strong>allowed</strong> the farmer to reach the <strong>apple</strong>.,100,15,0,3,71,Mon Aug 29 2022 16:40:36 GMT-0400 (Eastern Daylight Time),1.66E+12,4.93075,slider_rating,7,no,no,no,no,no
218,63839,21,,Graduated College,1.66E+12,Female,English,images/UPHazard0DOWNHazard100.gif,The wizard <strong>moved</strong> his wand.,The appearance of the rock <strong>stopped</strong> the farmer from reaching the <strong>apple</strong>.,The appearance of the rock <strong>made</strong> the farmer reach the <strong>apple</strong>.,The appearance of the rock <strong>blocked</strong> the farmer from reaching the <strong>apple</strong>.,The appearance of the rock <strong>caused</strong> the farmer to reach the <strong>apple</strong>.,100,100,0,100,0,Mon Aug 29 2022 16:44:38 GMT-0400 (Eastern Daylight Time),1.66E+12,8.682983333,slider_rating,1,no,no,no,no,no
218,67955,21,,Graduated College,1.66E+12,Female,English,images/DOWNHazard0DOWNHazard0.gif,The wizard <strong>moved</strong> his wand.,The absence of the rock <strong>stopped</strong> the farmer from reaching the <strong>apple</strong>.,The absence of the rock <strong>made</strong> the farmer reach the <strong>apple</strong>.,The absence of the rock <strong>blocked</strong> the farmer from reaching the <strong>apple</strong>.,The absence of the rock <strong>caused</strong> the farmer to reach the <strong>apple</strong>.,0,52,0,73,0,Mon Aug 29 2022 16:44:38 GMT-0400 (Eastern Daylight Time),1.66E+12,8.682983333,slider_rating,2,no,no,no,no,no
218,120072,21,,Graduated College,1.66E+12,Female,English,images/DOWNHazard100UPHazard0.gif,The wizard <strong>moved</strong> his wand.,The disappearance of the rock <strong>stopped</strong> the farmer from reaching the <strong>apple</strong>.,The disappearance of the rock <strong>made</strong> the farmer reach the <strong>apple</strong>.,The disappearance of the rock <strong>blocked</strong> the farmer from reaching the <strong>apple</strong>.,The disappearance of the rock <strong>caused</strong> the farmer to reach the <strong>apple</strong>.,100,0,100,0,100,Mon Aug 29 2022 16:44:38 GMT-0400 (Eastern Daylight Time),1.66E+12,8.682983333,slider_rating,3,no,no,no,no,no
218,45146,21,,Graduated College,1.66E+12,Female,English,images/DOWNHazard0DOWNHazard100.gif,The wizard <strong>moved</strong> his wand.,The appearance of the rock <strong>stopped</strong> the farmer from reaching the <strong>apple</strong>.,The appearance of the rock <strong>made</strong> the farmer reach the <strong>apple</strong>.,The appearance of the rock <strong>blocked</strong> the farmer from reaching the <strong>apple</strong>.,The appearance of the rock <strong>caused</strong> the farmer to reach the <strong>apple</strong>.,100,45,0,58,0,Mon Aug 29 2022 16:44:38 GMT-0400 (Eastern Daylight Time),1.66E+12,8.682983333,slider_rating,4,no,no,no,no,no
218,56047,21,,Graduated College,1.66E+12,Female,English,images/DOWNHazard100DOWNHazard0.gif,The wizard <strong>moved</strong> his wand.,The disappearance of the rock <strong>stopped</strong> the farmer from reaching the <strong>apple</strong>.,The disappearance of the rock <strong>made</strong> the farmer reach the <strong>apple</strong>.,The disappearance of the rock <strong>blocked</strong> the farmer from reaching the <strong>apple</strong>.,The disappearance of the rock <strong>caused</strong> the farmer to reach the <strong>apple</strong>.,100,0,0,0,0,Mon Aug 29 2022 16:44:38 GMT-0400 (Eastern Daylight Time),1.66E+12,8.682983333,slider_rating,5,no,no,no,no,no
218,29207,21,,Graduated College,1.66E+12,Female,English,images/UPHazard0UPHazard0.gif,The wizard <strong>moved</strong> his wand.,The absence of the rock <strong>stopped</strong> the farmer from reaching the <strong>apple</strong>.,The absence of the rock <strong>made</strong> the farmer reach the <strong>apple</strong>.,The absence of the rock <strong>blocked</strong> the farmer from reaching the <strong>apple</strong>.,The absence of the rock <strong>caused</strong> the farmer to reach the <strong>apple</strong>.,0,0,97,0,100,Mon Aug 29 2022 16:44:38 GMT-0400 (Eastern Daylight Time),1.66E+12,8.682983333,slider_rating,6,no,no,no,no,no
218,35287,21,,Graduated College,1.66E+12,Female,English,images/DOWNHazard100DOWNHazard100.gif,The wizard <strong>moved</strong> his wand.,The presence of the rock <strong>stopped</strong> the farmer from reaching the <strong>apple</strong>.,The presence of the rock <strong>made</strong> the farmer reach the <strong>apple</strong>.,The presence of the rock <strong>blocked</strong> the farmer from reaching the <strong>apple</strong>.,The presence of the rock <strong>caused</strong> the farmer to reach the <strong>apple</strong>.,0,73,0,73,0,Mon Aug 29 2022 16:44:38 GMT-0400 (Eastern Daylight Time),1.66E+12,8.682983333,slider_rating,7,no,no,no,no,no
219,59824,59,Thank you for allowing me to do the survey.,Graduated High School,1.66E+12,Female,English,images/UPHazard0DOWNHazard100.gif,The appearance of the rock <strong>made</strong> the farmer reach the <strong>apple</strong>.,The appearance of the rock <strong>blocked</strong> the farmer from reaching the <strong>apple</strong>.,The appearance of the rock <strong>allowed</strong> the farmer to reach the <strong>apple</strong>.,The appearance of the rock <strong>stopped</strong> the farmer from reaching the <strong>apple</strong>.,The wizard <strong>moved</strong> his wand.,0,100,0,100,100,Mon Aug 29 2022 16:48:15 GMT-0400 (Eastern Daylight Time),1.66E+12,5.62395,slider_rating,1,no,no,no,no,no
219,33026,59,Thank you for allowing me to do the survey.,Graduated High School,1.66E+12,Female,English,images/DOWNHazard100UPHazard0.gif,The disappearance of the rock <strong>made</strong> the farmer reach the <strong>apple</strong>.,The disappearance of the rock <strong>blocked</strong> the farmer from reaching the <strong>apple</strong>.,The disappearance of the rock <strong>allowed</strong> the farmer to reach the <strong>apple</strong>.,The disappearance of the rock <strong>stopped</strong> the farmer from reaching the <strong>apple</strong>.,The wizard <strong>moved</strong> his wand.,100,0,100,0,100,Mon Aug 29 2022 16:48:15 GMT-0400 (Eastern Daylight Time),1.66E+12,5.62395,slider_rating,2,no,no,no,no,no
219,32482,59,Thank you for allowing me to do the survey.,Graduated High School,1.66E+12,Female,English,images/DOWNHazard0DOWNHazard100.gif,The appearance of the rock <strong>made</strong> the farmer reach the <strong>apple</strong>.,The appearance of the rock <strong>blocked</strong> the farmer from reaching the <strong>apple</strong>.,The appearance of the rock <strong>allowed</strong> the farmer to reach the <strong>apple</strong>.,The appearance of the rock <strong>stopped</strong> the farmer from reaching the <strong>apple</strong>.,The wizard <strong>moved</strong> his wand.,0,100,0,100,100,Mon Aug 29 2022 16:48:15 GMT-0400 (Eastern Daylight Time),1.66E+12,5.62395,slider_rating,3,no,no,no,no,no
219,46398,59,Thank you for allowing me to do the survey.,Graduated High School,1.66E+12,Female,English,images/DOWNHazard100DOWNHazard100.gif,The presence of the rock <strong>made</strong> the farmer reach the <strong>apple</strong>.,The presence of the rock <strong>blocked</strong> the farmer from reaching the <strong>apple</strong>.,The presence of the rock <strong>allowed</strong> the farmer to reach the <strong>apple</strong>.,The presence of the rock <strong>stopped</strong> the farmer from reaching the <strong>apple</strong>.,The wizard <strong>moved</strong> his wand.,0,100,0,100,0,Mon Aug 29 2022 16:48:15 GMT-0400 (Eastern Daylight Time),1.66E+12,5.62395,slider_rating,4,no,no,no,no,no
219,24667,59,Thank you for allowing me to do the survey.,Graduated High School,1.66E+12,Female,English,images/DOWNHazard0DOWNHazard0.gif,The absence of the rock <strong>made</strong> the farmer reach the <strong>apple</strong>.,The absence of the rock <strong>blocked</strong> the farmer from reaching the <strong>apple</strong>.,The absence of the rock <strong>allowed</strong> the farmer to reach the <strong>apple</strong>.,The absence of the rock <strong>stopped</strong> the farmer from reaching the <strong>apple</strong>.,The wizard <strong>moved</strong> his wand.,0,0,0,0,0,Mon Aug 29 2022 16:48:15 GMT-0400 (Eastern Daylight Time),1.66E+12,5.62395,slider_rating,5,no,no,no,no,no
219,28388,59,Thank you for allowing me to do the survey.,Graduated High School,1.66E+12,Female,English,images/UPHazard0UPHazard0.gif,The absence of the rock <strong>made</strong> the farmer reach the <strong>apple</strong>.,The absence of the rock <strong>blocked</strong> the farmer from reaching the <strong>apple</strong>.,The absence of the rock <strong>allowed</strong> the farmer to reach the <strong>apple</strong>.,The absence of the rock <strong>stopped</strong> the farmer from reaching the <strong>apple</strong>.,The wizard <strong>moved</strong> his wand.,100,0,100,0,0,Mon Aug 29 2022 16:48:15 GMT-0400 (Eastern Daylight Time),1.66E+12,5.62395,slider_rating,6,no,no,no,no,no
219,25558,59,Thank you for allowing me to do the survey.,Graduated High School,1.66E+12,Female,English,images/DOWNHazard100DOWNHazard0.gif,The disappearance of the rock <strong>made</strong> the farmer reach the <strong>apple</strong>.,The disappearance of the rock <strong>blocked</strong> the farmer from reaching the <strong>apple</strong>.,The disappearance of the rock <strong>allowed</strong> the farmer to reach the <strong>apple</strong>.,The disappearance of the rock <strong>stopped</strong> the farmer from reaching the <strong>apple</strong>.,The wizard <strong>moved</strong> his wand.,0,0,0,0,100,Mon Aug 29 2022 16:48:15 GMT-0400 (Eastern Daylight Time),1.66E+12,5.62395,slider_rating,7,no,no,no,no,no
220,33024,,,Graduated College,1.66E+12,Female,English,images/UPHazard0DOWNHazard100.gif,The appearance of the rock <strong>let</strong> the farmer reach the <strong>apple</strong>.,The wizard <strong>moved</strong> his wand.,The appearance of the rock <strong>made</strong> the farmer reach the <strong>apple</strong>.,The appearance of the rock <strong>allowed</strong> the farmer to reach the <strong>apple</strong>.,The appearance of the rock <strong>stopped</strong> the farmer from reaching the <strong>apple</strong>.,0,100,0,0,100,Mon Aug 29 2022 16:50:04 GMT-0400 (EDT),1.66E+12,4.051783333,slider_rating,1,no,no,no,no,no
220,27561,,,Graduated College,1.66E+12,Female,English,images/DOWNHazard100DOWNHazard0.gif,The disappearance of the rock <strong>let</strong> the farmer reach the <strong>apple</strong>.,The wizard <strong>moved</strong> his wand.,The disappearance of the rock <strong>made</strong> the farmer reach the <strong>apple</strong>.,The disappearance of the rock <strong>allowed</strong> the farmer to reach the <strong>apple</strong>.,The disappearance of the rock <strong>stopped</strong> the farmer from reaching the <strong>apple</strong>.,100,100,0,100,0,Mon Aug 29 2022 16:50:04 GMT-0400 (EDT),1.66E+12,4.051783333,slider_rating,2,no,no,no,no,no
220,25491,,,Graduated College,1.66E+12,Female,English,images/DOWNHazard0DOWNHazard0.gif,The absence of the rock <strong>let</strong> the farmer reach the <strong>apple</strong>.,The wizard <strong>moved</strong> his wand.,The absence of the rock <strong>made</strong> the farmer reach the <strong>apple</strong>.,The absence of the rock <strong>allowed</strong> the farmer to reach the <strong>apple</strong>.,The absence of the rock <strong>stopped</strong> the farmer from reaching the <strong>apple</strong>.,100,0,0,100,0,Mon Aug 29 2022 16:50:04 GMT-0400 (EDT),1.66E+12,4.051783333,slider_rating,3,no,no,no,no,no
220,28097,,,Graduated College,1.66E+12,Female,English,images/DOWNHazard100DOWNHazard100.gif,The presence of the rock <strong>let</strong> the farmer reach the <strong>apple</strong>.,The wizard <strong>moved</strong> his wand.,The presence of the rock <strong>made</strong> the farmer reach the <strong>apple</strong>.,The presence of the rock <strong>allowed</strong> the farmer to reach the <strong>apple</strong>.,The presence of the rock <strong>stopped</strong> the farmer from reaching the <strong>apple</strong>.,0,0,0,0,100,Mon Aug 29 2022 16:50:04 GMT-0400 (EDT),1.66E+12,4.051783333,slider_rating,4,no,no,no,no,no
220,31831,,,Graduated College,1.66E+12,Female,English,images/DOWNHazard0DOWNHazard100.gif,The appearance of the rock <strong>let</strong> the farmer reach the <strong>apple</strong>.,The wizard <strong>moved</strong> his wand.,The appearance of the rock <strong>made</strong> the farmer reach the <strong>apple</strong>.,The appearance of the rock <strong>allowed</strong> the farmer to reach the <strong>apple</strong>.,The appearance of the rock <strong>stopped</strong> the farmer from reaching the <strong>apple</strong>.,0,100,0,0,100,Mon Aug 29 2022 16:50:04 GMT-0400 (EDT),1.66E+12,4.051783333,slider_rating,5,no,no,no,no,no
220,24151,,,Graduated College,1.66E+12,Female,English,images/UPHazard0UPHazard0.gif,The absence of the rock <strong>let</strong> the farmer reach the <strong>apple</strong>.,The wizard <strong>moved</strong> his wand.,The absence of the rock <strong>made</strong> the farmer reach the <strong>apple</strong>.,The absence of the rock <strong>allowed</strong> the farmer to reach the <strong>apple</strong>.,The absence of the rock <strong>stopped</strong> the farmer from reaching the <strong>apple</strong>.,100,0,100,100,0,Mon Aug 29 2022 16:50:04 GMT-0400 (EDT),1.66E+12,4.051783333,slider_rating,6,no,no,no,no,no
220,20631,,,Graduated College,1.66E+12,Female,English,images/DOWNHazard100UPHazard0.gif,The disappearance of the rock <strong>let</strong> the farmer reach the <strong>apple</strong>.,The wizard <strong>moved</strong> his wand.,The disappearance of the rock <strong>made</strong> the farmer reach the <strong>apple</strong>.,The disappearance of the rock <strong>allowed</strong> the farmer to reach the <strong>apple</strong>.,The disappearance of the rock <strong>stopped</strong> the farmer from reaching the <strong>apple</strong>.,100,0,100,100,0,Mon Aug 29 2022 16:50:04 GMT-0400 (EDT),1.66E+12,4.051783333,slider_rating,7,no,no,no,no,no
231,27140,37,,Higher Degree,1.66E+12,female,english,images/UPHazard0DOWNHazard100.gif,The appearance of the rock <strong>got</strong> the farmer to reach the <strong>apple</strong>.,The appearance of the rock <strong>blocked</strong> the farmer from reaching the <strong>apple</strong>.,The wizard <strong>moved</strong> his wand.,The appearance of the rock <strong>allowed</strong> the farmer to reach the <strong>apple</strong>.,The appearance of the rock <strong>caused</strong> the farmer to reach the <strong>apple</strong>.,13,2,88,94,80,Mon Aug 29 2022 14:00:28 GMT-0700 (Pacific Daylight Time),1.66E+12,4.9387,slider_rating,1,no,no,no,no,no
231,24647,37,,Higher Degree,1.66E+12,female,english,images/DOWNHazard100DOWNHazard0.gif,The disappearance of the rock <strong>got</strong> the farmer to reach the <strong>apple</strong>.,The disappearance of the rock <strong>blocked</strong> the farmer from reaching the <strong>apple</strong>.,The wizard <strong>moved</strong> his wand.,The disappearance of the rock <strong>allowed</strong> the farmer to reach the <strong>apple</strong>.,The disappearance of the rock <strong>caused</strong> the farmer to reach the <strong>apple</strong>.,9,16,87,78,86,Mon Aug 29 2022 14:00:28 GMT-0700 (Pacific Daylight Time),1.66E+12,4.9387,slider_rating,2,no,no,no,no,no
231,20414,37,,Higher Degree,1.66E+12,female,english,images/UPHazard0UPHazard0.gif,The absence of the rock <strong>got</strong> the farmer to reach the <strong>apple</strong>.,The absence of the rock <strong>blocked</strong> the farmer from reaching the <strong>apple</strong>.,The wizard <strong>moved</strong> his wand.,The absence of the rock <strong>allowed</strong> the farmer to reach the <strong>apple</strong>.,The absence of the rock <strong>caused</strong> the farmer to reach the <strong>apple</strong>.,96,16,9,94,93,Mon Aug 29 2022 14:00:28 GMT-0700 (Pacific Daylight Time),1.66E+12,4.9387,slider_rating,3,no,no,no,no,no
231,51797,37,,Higher Degree,1.66E+12,female,english,images/DOWNHazard0DOWNHazard0.gif,The absence of the rock <strong>got</strong> the farmer to reach the <strong>apple</strong>.,The absence of the rock <strong>blocked</strong> the farmer from reaching the <strong>apple</strong>.,The wizard <strong>moved</strong> his wand.,The absence of the rock <strong>allowed</strong> the farmer to reach the <strong>apple</strong>.,The absence of the rock <strong>caused</strong> the farmer to reach the <strong>apple</strong>.,18,85,27,26,17,Mon Aug 29 2022 14:00:28 GMT-0700 (Pacific Daylight Time),1.66E+12,4.9387,slider_rating,4,no,no,no,no,no
231,23132,37,,Higher Degree,1.66E+12,female,english,images/DOWNHazard100DOWNHazard100.gif,The presence of the rock <strong>got</strong> the farmer to reach the <strong>apple</strong>.,The presence of the rock <strong>blocked</strong> the farmer from reaching the <strong>apple</strong>.,The wizard <strong>moved</strong> his wand.,The presence of the rock <strong>allowed</strong> the farmer to reach the <strong>apple</strong>.,The presence of the rock <strong>caused</strong> the farmer to reach the <strong>apple</strong>.,11,96,20,12,15,Mon Aug 29 2022 14:00:28 GMT-0700 (Pacific Daylight Time),1.66E+12,4.9387,slider_rating,5,no,no,no,no,no
231,20353,37,,Higher Degree,1.66E+12,female,english,images/DOWNHazard100UPHazard0.gif,The disappearance of the rock <strong>got</strong> the farmer to reach the <strong>apple</strong>.,The disappearance of the rock <strong>blocked</strong> the farmer from reaching the <strong>apple</strong>.,The wizard <strong>moved</strong> his wand.,The disappearance of the rock <strong>allowed</strong> the farmer to reach the <strong>apple</strong>.,The disappearance of the rock <strong>caused</strong> the farmer to reach the <strong>apple</strong>.,91,95,87,89,100,Mon Aug 29 2022 14:00:28 GMT-0700 (Pacific Daylight Time),1.66E+12,4.9387,slider_rating,6,no,no,no,no,no
231,63171,37,,Higher Degree,1.66E+12,female,english,images/DOWNHazard0DOWNHazard100.gif,The appearance of the rock <strong>got</strong> the farmer to reach the <strong>apple</strong>.,The appearance of the rock <strong>blocked</strong> the farmer from reaching the <strong>apple</strong>.,The wizard <strong>moved</strong> his wand.,The appearance of the rock <strong>allowed</strong> the farmer to reach the <strong>apple</strong>.,The appearance of the rock <strong>caused</strong> the farmer to reach the <strong>apple</strong>.,8,1,71,12,13,Mon Aug 29 2022 14:00:28 GMT-0700 (Pacific Daylight Time),1.66E+12,4.9387,slider_rating,7,no,no,no,no,no
222,46229,42,,Higher Degree,1.66E+12,Male,English,images/UPHazard0DOWNHazard100.gif,The wizard <strong>moved</strong> his wand.,The appearance of the rock <strong>prevented</strong> the farmer from reaching the <strong>apple</strong>.,The appearance of the rock <strong>got</strong> the farmer to reach the <strong>apple</strong>.,The appearance of the rock <strong>stopped</strong> the farmer from reaching the <strong>apple</strong>.,The appearance of the rock <strong>let</strong> the farmer reach the <strong>apple</strong>.,100,100,0,100,0,Mon Aug 29 2022 16:56:59 GMT-0400 (Eastern Daylight Time),1.66E+12,4.805883333,slider_rating,1,no,no,no,no,no
222,42811,42,,Higher Degree,1.66E+12,Male,English,images/DOWNHazard100DOWNHazard0.gif,The wizard <strong>moved</strong> his wand.,The disappearance of the rock <strong>prevented</strong> the farmer from reaching the <strong>apple</strong>.,The disappearance of the rock <strong>got</strong> the farmer to reach the <strong>apple</strong>.,The disappearance of the rock <strong>stopped</strong> the farmer from reaching the <strong>apple</strong>.,The disappearance of the rock <strong>let</strong> the farmer reach the <strong>apple</strong>.,100,0,0,0,100,Mon Aug 29 2022 16:56:59 GMT-0400 (Eastern Daylight Time),1.66E+12,4.805883333,slider_rating,2,no,no,no,no,no
222,24589,42,,Higher Degree,1.66E+12,Male,English,images/DOWNHazard100DOWNHazard100.gif,The wizard <strong>moved</strong> his wand.,The presence of the rock <strong>prevented</strong> the farmer from reaching the <strong>apple</strong>.,The presence of the rock <strong>got</strong> the farmer to reach the <strong>apple</strong>.,The presence of the rock <strong>stopped</strong> the farmer from reaching the <strong>apple</strong>.,The presence of the rock <strong>let</strong> the farmer reach the <strong>apple</strong>.,0,100,0,100,0,Mon Aug 29 2022 16:56:59 GMT-0400 (Eastern Daylight Time),1.66E+12,4.805883333,slider_rating,3,no,no,no,no,no
222,27085,42,,Higher Degree,1.66E+12,Male,English,images/DOWNHazard0DOWNHazard100.gif,The wizard <strong>moved</strong> his wand.,The appearance of the rock <strong>prevented</strong> the farmer from reaching the <strong>apple</strong>.,The appearance of the rock <strong>got</strong> the farmer to reach the <strong>apple</strong>.,The appearance of the rock <strong>stopped</strong> the farmer from reaching the <strong>apple</strong>.,The appearance of the rock <strong>let</strong> the farmer reach the <strong>apple</strong>.,100,100,0,100,0,Mon Aug 29 2022 16:56:59 GMT-0400 (Eastern Daylight Time),1.66E+12,4.805883333,slider_rating,4,no,no,no,no,no
222,21890,42,,Higher Degree,1.66E+12,Male,English,images/UPHazard0UPHazard0.gif,The wizard <strong>moved</strong> his wand.,The absence of the rock <strong>prevented</strong> the farmer from reaching the <strong>apple</strong>.,The absence of the rock <strong>got</strong> the farmer to reach the <strong>apple</strong>.,The absence of the rock <strong>stopped</strong> the farmer from reaching the <strong>apple</strong>.,The absence of the rock <strong>let</strong> the farmer reach the <strong>apple</strong>.,0,0,100,0,100,Mon Aug 29 2022 16:56:59 GMT-0400 (Eastern Daylight Time),1.66E+12,4.805883333,slider_rating,5,no,no,no,no,no
222,22782,42,,Higher Degree,1.66E+12,Male,English,images/DOWNHazard100UPHazard0.gif,The wizard <strong>moved</strong> his wand.,The disappearance of the rock <strong>prevented</strong> the farmer from reaching the <strong>apple</strong>.,The disappearance of the rock <strong>got</strong> the farmer to reach the <strong>apple</strong>.,The disappearance of the rock <strong>stopped</strong> the farmer from reaching the <strong>apple</strong>.,The disappearance of the rock <strong>let</strong> the farmer reach the <strong>apple</strong>.,100,0,100,0,100,Mon Aug 29 2022 16:56:59 GMT-0400 (Eastern Daylight Time),1.66E+12,4.805883333,slider_rating,6,no,no,no,no,no
222,22961,42,,Higher Degree,1.66E+12,Male,English,images/DOWNHazard0DOWNHazard0.gif,The wizard <strong>moved</strong> his wand.,The absence of the rock <strong>prevented</strong> the farmer from reaching the <strong>apple</strong>.,The absence of the rock <strong>got</strong> the farmer to reach the <strong>apple</strong>.,The absence of the rock <strong>stopped</strong> the farmer from reaching the <strong>apple</strong>.,The absence of the rock <strong>let</strong> the farmer reach the <strong>apple</strong>.,0,0,0,0,100,Mon Aug 29 2022 16:56:59 GMT-0400 (Eastern Daylight Time),1.66E+12,4.805883333,slider_rating,7,no,no,no,no,no
223,26711,36,"Nothing, thank you.",Graduated College,1.66E+12,Female,English,images/UPHazard0DOWNHazard100.gif,The appearance of the rock <strong>got</strong> the farmer to reach the <strong>apple</strong>.,The appearance of the rock <strong>enabled</strong> the farmer to reach the <strong>apple</strong>.,The appearance of the rock <strong>made</strong> the farmer reach the <strong>apple</strong>.,The appearance of the rock <strong>let</strong> the farmer reach the <strong>apple</strong>.,The wizard <strong>moved</strong> his wand.,0,0,0,0,100,Mon Aug 29 2022 16:57:53 GMT-0400 (EDT),1.66E+12,3.959183333,slider_rating,1,no,no,no,no,no
223,35331,36,"Nothing, thank you.",Graduated College,1.66E+12,Female,English,images/DOWNHazard100DOWNHazard0.gif,The disappearance of the rock <strong>got</strong> the farmer to reach the <strong>apple</strong>.,The disappearance of the rock <strong>enabled</strong> the farmer to reach the <strong>apple</strong>.,The disappearance of the rock <strong>made</strong> the farmer reach the <strong>apple</strong>.,The disappearance of the rock <strong>let</strong> the farmer reach the <strong>apple</strong>.,The wizard <strong>moved</strong> his wand.,0,86,0,85,100,Mon Aug 29 2022 16:57:53 GMT-0400 (EDT),1.66E+12,3.959183333,slider_rating,2,no,no,no,no,no
223,18957,36,"Nothing, thank you.",Graduated College,1.66E+12,Female,English,images/DOWNHazard0DOWNHazard100.gif,The appearance of the rock <strong>got</strong> the farmer to reach the <strong>apple</strong>.,The appearance of the rock <strong>enabled</strong> the farmer to reach the <strong>apple</strong>.,The appearance of the rock <strong>made</strong> the farmer reach the <strong>apple</strong>.,The appearance of the rock <strong>let</strong> the farmer reach the <strong>apple</strong>.,The wizard <strong>moved</strong> his wand.,0,0,0,0,100,Mon Aug 29 2022 16:57:53 GMT-0400 (EDT),1.66E+12,3.959183333,slider_rating,3,no,no,no,no,no
223,26820,36,"Nothing, thank you.",Graduated College,1.66E+12,Female,English,images/DOWNHazard0DOWNHazard0.gif,The absence of the rock <strong>got</strong> the farmer to reach the <strong>apple</strong>.,The absence of the rock <strong>enabled</strong> the farmer to reach the <strong>apple</strong>.,The absence of the rock <strong>made</strong> the farmer reach the <strong>apple</strong>.,The absence of the rock <strong>let</strong> the farmer reach the <strong>apple</strong>.,The wizard <strong>moved</strong> his wand.,0,93,0,100,0,Mon Aug 29 2022 16:57:53 GMT-0400 (EDT),1.66E+12,3.959183333,slider_rating,4,no,no,no,no,no
223,33815,36,"Nothing, thank you.",Graduated College,1.66E+12,Female,English,images/DOWNHazard100UPHazard0.gif,The disappearance of the rock <strong>got</strong> the farmer to reach the <strong>apple</strong>.,The disappearance of the rock <strong>enabled</strong> the farmer to reach the <strong>apple</strong>.,The disappearance of the rock <strong>made</strong> the farmer reach the <strong>apple</strong>.,The disappearance of the rock <strong>let</strong> the farmer reach the <strong>apple</strong>.,The wizard <strong>moved</strong> his wand.,72,100,62,100,100,Mon Aug 29 2022 16:57:53 GMT-0400 (EDT),1.66E+12,3.959183333,slider_rating,5,no,no,no,no,no
223,16608,36,"Nothing, thank you.",Graduated College,1.66E+12,Female,English,images/DOWNHazard100DOWNHazard100.gif,The presence of the rock <strong>got</strong> the farmer to reach the <strong>apple</strong>.,The presence of the rock <strong>enabled</strong> the farmer to reach the <strong>apple</strong>.,The presence of the rock <strong>made</strong> the farmer reach the <strong>apple</strong>.,The presence of the rock <strong>let</strong> the farmer reach the <strong>apple</strong>.,The wizard <strong>moved</strong> his wand.,0,0,0,0,0,Mon Aug 29 2022 16:57:53 GMT-0400 (EDT),1.66E+12,3.959183333,slider_rating,6,no,no,no,no,no
223,17301,36,"Nothing, thank you.",Graduated College,1.66E+12,Female,English,images/UPHazard0UPHazard0.gif,The absence of the rock <strong>got</strong> the farmer to reach the <strong>apple</strong>.,The absence of the rock <strong>enabled</strong> the farmer to reach the <strong>apple</strong>.,The absence of the rock <strong>made</strong> the farmer reach the <strong>apple</strong>.,The absence of the rock <strong>let</strong> the farmer reach the <strong>apple</strong>.,The wizard <strong>moved</strong> his wand.,60,88,62,100,0,Mon Aug 29 2022 16:57:53 GMT-0400 (EDT),1.66E+12,3.959183333,slider_rating,7,no,no,no,no,no
235,39247,20,,Graduated High School,1.66E+12,F,english,images/UPHazard0DOWNHazard100.gif,The appearance of the rock <strong>enabled</strong> the farmer to reach the <strong>apple</strong>.,The appearance of the rock <strong>stopped</strong> the farmer from reaching the <strong>apple</strong>.,The wizard <strong>moved</strong> his wand.,The appearance of the rock <strong>allowed</strong> the farmer to reach the <strong>apple</strong>.,The appearance of the rock <strong>got</strong> the farmer to reach the <strong>apple</strong>.,0,100,100,0,0,Mon Aug 29 2022 16:01:09 GMT-0500 (Central Daylight Time),1.66E+12,6.266783333,slider_rating,1,no,no,no,no,no
235,78009,20,,Graduated High School,1.66E+12,F,english,images/DOWNHazard100DOWNHazard100.gif,The presence of the rock <strong>enabled</strong> the farmer to reach the <strong>apple</strong>.,The presence of the rock <strong>stopped</strong> the farmer from reaching the <strong>apple</strong>.,The wizard <strong>moved</strong> his wand.,The presence of the rock <strong>allowed</strong> the farmer to reach the <strong>apple</strong>.,The presence of the rock <strong>got</strong> the farmer to reach the <strong>apple</strong>.,0,100,0,0,0,Mon Aug 29 2022 16:01:09 GMT-0500 (Central Daylight Time),1.66E+12,6.266783333,slider_rating,2,no,no,no,no,no
235,22401,20,,Graduated High School,1.66E+12,F,english,images/DOWNHazard0DOWNHazard100.gif,The appearance of the rock <strong>enabled</strong> the farmer to reach the <strong>apple</strong>.,The appearance of the rock <strong>stopped</strong> the farmer from reaching the <strong>apple</strong>.,The wizard <strong>moved</strong> his wand.,The appearance of the rock <strong>allowed</strong> the farmer to reach the <strong>apple</strong>.,The appearance of the rock <strong>got</strong> the farmer to reach the <strong>apple</strong>.,0,100,0,0,0,Mon Aug 29 2022 16:01:09 GMT-0500 (Central Daylight Time),1.66E+12,6.266783333,slider_rating,3,no,no,no,no,no
235,34296,20,,Graduated High School,1.66E+12,F,english,images/DOWNHazard0DOWNHazard0.gif,The absence of the rock <strong>enabled</strong> the farmer to reach the <strong>apple</strong>.,The absence of the rock <strong>stopped</strong> the farmer from reaching the <strong>apple</strong>.,The wizard <strong>moved</strong> his wand.,The absence of the rock <strong>allowed</strong> the farmer to reach the <strong>apple</strong>.,The absence of the rock <strong>got</strong> the farmer to reach the <strong>apple</strong>.,0,100,0,0,0,Mon Aug 29 2022 16:01:09 GMT-0500 (Central Daylight Time),1.66E+12,6.266783333,slider_rating,4,no,no,no,no,no
235,48195,20,,Graduated High School,1.66E+12,F,english,images/DOWNHazard100UPHazard0.gif,The disappearance of the rock <strong>enabled</strong> the farmer to reach the <strong>apple</strong>.,The disappearance of the rock <strong>stopped</strong> the farmer from reaching the <strong>apple</strong>.,The wizard <strong>moved</strong> his wand.,The disappearance of the rock <strong>allowed</strong> the farmer to reach the <strong>apple</strong>.,The disappearance of the rock <strong>got</strong> the farmer to reach the <strong>apple</strong>.,100,100,100,100,100,Mon Aug 29 2022 16:01:09 GMT-0500 (Central Daylight Time),1.66E+12,6.266783333,slider_rating,5,no,no,no,no,no
235,35040,20,,Graduated High School,1.66E+12,F,english,images/UPHazard0UPHazard0.gif,The absence of the rock <strong>enabled</strong> the farmer to reach the <strong>apple</strong>.,The absence of the rock <strong>stopped</strong> the farmer from reaching the <strong>apple</strong>.,The wizard <strong>moved</strong> his wand.,The absence of the rock <strong>allowed</strong> the farmer to reach the <strong>apple</strong>.,The absence of the rock <strong>got</strong> the farmer to reach the <strong>apple</strong>.,100,0,0,100,100,Mon Aug 29 2022 16:01:09 GMT-0500 (Central Daylight Time),1.66E+12,6.266783333,slider_rating,6,no,no,no,no,no
235,21249,20,,Graduated High School,1.66E+12,F,english,images/DOWNHazard100DOWNHazard0.gif,The disappearance of the rock <strong>enabled</strong> the farmer to reach the <strong>apple</strong>.,The disappearance of the rock <strong>stopped</strong> the farmer from reaching the <strong>apple</strong>.,The wizard <strong>moved</strong> his wand.,The disappearance of the rock <strong>allowed</strong> the farmer to reach the <strong>apple</strong>.,The disappearance of the rock <strong>got</strong> the farmer to reach the <strong>apple</strong>.,100,0,100,100,0,Mon Aug 29 2022 16:01:09 GMT-0500 (Central Daylight Time),1.66E+12,6.266783333,slider_rating,7,no,no,no,no,no
224,61204,35,,Higher Degree,1.66E+12,male,english,images/UPHazard0DOWNHazard100.gif,The appearance of the rock <strong>made</strong> the farmer reach the <strong>apple</strong>.,The wizard <strong>moved</strong> his wand.,The appearance of the rock <strong>let</strong> the farmer reach the <strong>apple</strong>.,The appearance of the rock <strong>got</strong> the farmer to reach the <strong>apple</strong>.,The appearance of the rock <strong>allowed</strong> the farmer to reach the <strong>apple</strong>.,0,100,0,0,0,Mon Aug 29 2022 16:57:17 GMT-0400 (Eastern Daylight Time),1.66E+12,5.208216667,slider_rating,1,no,no,no,no,no
224,25178,35,,Higher Degree,1.66E+12,male,english,images/UPHazard0UPHazard0.gif,The absence of the rock <strong>made</strong> the farmer reach the <strong>apple</strong>.,The wizard <strong>moved</strong> his wand.,The absence of the rock <strong>let</strong> the farmer reach the <strong>apple</strong>.,The absence of the rock <strong>got</strong> the farmer to reach the <strong>apple</strong>.,The absence of the rock <strong>allowed</strong> the farmer to reach the <strong>apple</strong>.,100,0,100,100,100,Mon Aug 29 2022 16:57:17 GMT-0400 (Eastern Daylight Time),1.66E+12,5.208216667,slider_rating,2,no,no,no,no,no
224,25832,35,,Higher Degree,1.66E+12,male,english,images/DOWNHazard0DOWNHazard100.gif,The appearance of the rock <strong>made</strong> the farmer reach the <strong>apple</strong>.,The wizard <strong>moved</strong> his wand.,The appearance of the rock <strong>let</strong> the farmer reach the <strong>apple</strong>.,The appearance of the rock <strong>got</strong> the farmer to reach the <strong>apple</strong>.,The appearance of the rock <strong>allowed</strong> the farmer to reach the <strong>apple</strong>.,0,100,0,0,0,Mon Aug 29 2022 16:57:17 GMT-0400 (Eastern Daylight Time),1.66E+12,5.208216667,slider_rating,3,no,no,no,no,no
224,23936,35,,Higher Degree,1.66E+12,male,english,images/DOWNHazard100UPHazard0.gif,The disappearance of the rock <strong>made</strong> the farmer reach the <strong>apple</strong>.,The wizard <strong>moved</strong> his wand.,The disappearance of the rock <strong>let</strong> the farmer reach the <strong>apple</strong>.,The disappearance of the rock <strong>got</strong> the farmer to reach the <strong>apple</strong>.,The disappearance of the rock <strong>allowed</strong> the farmer to reach the <strong>apple</strong>.,100,100,100,100,100,Mon Aug 29 2022 16:57:17 GMT-0400 (Eastern Daylight Time),1.66E+12,5.208216667,slider_rating,4,no,no,no,no,no
224,37183,35,,Higher Degree,1.66E+12,male,english,images/DOWNHazard100DOWNHazard0.gif,The disappearance of the rock <strong>made</strong> the farmer reach the <strong>apple</strong>.,The wizard <strong>moved</strong> his wand.,The disappearance of the rock <strong>let</strong> the farmer reach the <strong>apple</strong>.,The disappearance of the rock <strong>got</strong> the farmer to reach the <strong>apple</strong>.,The disappearance of the rock <strong>allowed</strong> the farmer to reach the <strong>apple</strong>.,0,100,0,100,100,Mon Aug 29 2022 16:57:17 GMT-0400 (Eastern Daylight Time),1.66E+12,5.208216667,slider_rating,5,no,no,no,no,no
224,25713,35,,Higher Degree,1.66E+12,male,english,images/DOWNHazard100DOWNHazard100.gif,The presence of the rock <strong>made</strong> the farmer reach the <strong>apple</strong>.,The wizard <strong>moved</strong> his wand.,The presence of the rock <strong>let</strong> the farmer reach the <strong>apple</strong>.,The presence of the rock <strong>got</strong> the farmer to reach the <strong>apple</strong>.,The presence of the rock <strong>allowed</strong> the farmer to reach the <strong>apple</strong>.,0,0,0,0,0,Mon Aug 29 2022 16:57:17 GMT-0400 (Eastern Daylight Time),1.66E+12,5.208216667,slider_rating,6,no,no,no,no,no
224,32162,35,,Higher Degree,1.66E+12,male,english,images/DOWNHazard0DOWNHazard0.gif,The absence of the rock <strong>made</strong> the farmer reach the <strong>apple</strong>.,The wizard <strong>moved</strong> his wand.,The absence of the rock <strong>let</strong> the farmer reach the <strong>apple</strong>.,The absence of the rock <strong>got</strong> the farmer to reach the <strong>apple</strong>.,The absence of the rock <strong>allowed</strong> the farmer to reach the <strong>apple</strong>.,0,0,0,2,4,Mon Aug 29 2022 16:57:17 GMT-0400 (Eastern Daylight Time),1.66E+12,5.208216667,slider_rating,7,no,no,no,no,no
225,42078,49,,Graduated College,1.66E+12,female,english,images/UPHazard0DOWNHazard100.gif,The appearance of the rock <strong>let</strong> the farmer reach the <strong>apple</strong>.,The appearance of the rock <strong>caused</strong> the farmer to reach the <strong>apple</strong>.,The appearance of the rock <strong>made</strong> the farmer reach the <strong>apple</strong>.,The appearance of the rock <strong>blocked</strong> the farmer from reaching the <strong>apple</strong>.,The wizard <strong>moved</strong> his wand.,0,0,0,100,100,Mon Aug 29 2022 16:57:58 GMT-0400 (Eastern Daylight Time),1.66E+12,4.675383333,slider_rating,1,no,no,no,no,no
225,29063,49,,Graduated College,1.66E+12,female,english,images/DOWNHazard0DOWNHazard100.gif,The appearance of the rock <strong>let</strong> the farmer reach the <strong>apple</strong>.,The appearance of the rock <strong>caused</strong> the farmer to reach the <strong>apple</strong>.,The appearance of the rock <strong>made</strong> the farmer reach the <strong>apple</strong>.,The appearance of the rock <strong>blocked</strong> the farmer from reaching the <strong>apple</strong>.,The wizard <strong>moved</strong> his wand.,0,0,0,100,100,Mon Aug 29 2022 16:57:58 GMT-0400 (Eastern Daylight Time),1.66E+12,4.675383333,slider_rating,2,no,no,no,no,no
225,32384,49,,Graduated College,1.66E+12,female,english,images/DOWNHazard100UPHazard0.gif,The disappearance of the rock <strong>let</strong> the farmer reach the <strong>apple</strong>.,The disappearance of the rock <strong>caused</strong> the farmer to reach the <strong>apple</strong>.,The disappearance of the rock <strong>made</strong> the farmer reach the <strong>apple</strong>.,The disappearance of the rock <strong>blocked</strong> the farmer from reaching the <strong>apple</strong>.,The wizard <strong>moved</strong> his wand.,100,100,100,0,100,Mon Aug 29 2022 16:57:58 GMT-0400 (Eastern Daylight Time),1.66E+12,4.675383333,slider_rating,3,no,no,no,no,no
225,29530,49,,Graduated College,1.66E+12,female,english,images/DOWNHazard100DOWNHazard100.gif,The presence of the rock <strong>let</strong> the farmer reach the <strong>apple</strong>.,The presence of the rock <strong>caused</strong> the farmer to reach the <strong>apple</strong>.,The presence of the rock <strong>made</strong> the farmer reach the <strong>apple</strong>.,The presence of the rock <strong>blocked</strong> the farmer from reaching the <strong>apple</strong>.,The wizard <strong>moved</strong> his wand.,0,0,0,0,0,Mon Aug 29 2022 16:57:58 GMT-0400 (Eastern Daylight Time),1.66E+12,4.675383333,slider_rating,4,no,no,no,no,no
225,24892,49,,Graduated College,1.66E+12,female,english,images/DOWNHazard100DOWNHazard0.gif,The disappearance of the rock <strong>let</strong> the farmer reach the <strong>apple</strong>.,The disappearance of the rock <strong>caused</strong> the farmer to reach the <strong>apple</strong>.,The disappearance of the rock <strong>made</strong> the farmer reach the <strong>apple</strong>.,The disappearance of the rock <strong>blocked</strong> the farmer from reaching the <strong>apple</strong>.,The wizard <strong>moved</strong> his wand.,0,0,0,0,100,Mon Aug 29 2022 16:57:58 GMT-0400 (Eastern Daylight Time),1.66E+12,4.675383333,slider_rating,5,no,no,no,no,no
225,23740,49,,Graduated College,1.66E+12,female,english,images/DOWNHazard0DOWNHazard0.gif,The absence of the rock <strong>let</strong> the farmer reach the <strong>apple</strong>.,The absence of the rock <strong>caused</strong> the farmer to reach the <strong>apple</strong>.,The absence of the rock <strong>made</strong> the farmer reach the <strong>apple</strong>.,The absence of the rock <strong>blocked</strong> the farmer from reaching the <strong>apple</strong>.,The wizard <strong>moved</strong> his wand.,0,0,0,0,0,Mon Aug 29 2022 16:57:58 GMT-0400 (Eastern Daylight Time),1.66E+12,4.675383333,slider_rating,6,no,no,no,no,no
225,24860,49,,Graduated College,1.66E+12,female,english,images/UPHazard0UPHazard0.gif,The absence of the rock <strong>let</strong> the farmer reach the <strong>apple</strong>.,The absence of the rock <strong>caused</strong> the farmer to reach the <strong>apple</strong>.,The absence of the rock <strong>made</strong> the farmer reach the <strong>apple</strong>.,The absence of the rock <strong>blocked</strong> the farmer from reaching the <strong>apple</strong>.,The wizard <strong>moved</strong> his wand.,100,100,100,0,0,Mon Aug 29 2022 16:57:58 GMT-0400 (Eastern Daylight Time),1.66E+12,4.675383333,slider_rating,7,no,no,no,no,no
226,55476,26,N/a,Graduated High School,1.66E+12,Female,English,images/UPHazard0DOWNHazard100.gif,The appearance of the rock <strong>stopped</strong> the farmer from reaching the <strong>apple</strong>.,The appearance of the rock <strong>got</strong> the farmer to reach the <strong>apple</strong>.,The appearance of the rock <strong>let</strong> the farmer reach the <strong>apple</strong>.,The wizard <strong>moved</strong> his wand.,The appearance of the rock <strong>caused</strong> the farmer to reach the <strong>apple</strong>.,100,0,0,100,0,Mon Aug 29 2022 14:58:15 GMT-0600 (Mountain Daylight Time),1.66E+12,5.086683333,slider_rating,1,no,no,no,no,no
226,26938,26,N/a,Graduated High School,1.66E+12,Female,English,images/DOWNHazard0DOWNHazard100.gif,The appearance of the rock <strong>stopped</strong> the farmer from reaching the <strong>apple</strong>.,The appearance of the rock <strong>got</strong> the farmer to reach the <strong>apple</strong>.,The appearance of the rock <strong>let</strong> the farmer reach the <strong>apple</strong>.,The wizard <strong>moved</strong> his wand.,The appearance of the rock <strong>caused</strong> the farmer to reach the <strong>apple</strong>.,100,0,0,100,0,Mon Aug 29 2022 14:58:15 GMT-0600 (Mountain Daylight Time),1.66E+12,5.086683333,slider_rating,2,no,no,no,no,no
226,40697,26,N/a,Graduated High School,1.66E+12,Female,English,images/DOWNHazard0DOWNHazard0.gif,The absence of the rock <strong>stopped</strong> the farmer from reaching the <strong>apple</strong>.,The absence of the rock <strong>got</strong> the farmer to reach the <strong>apple</strong>.,The absence of the rock <strong>let</strong> the farmer reach the <strong>apple</strong>.,The wizard <strong>moved</strong> his wand.,The absence of the rock <strong>caused</strong> the farmer to reach the <strong>apple</strong>.,0,0,0,0,0,Mon Aug 29 2022 14:58:15 GMT-0600 (Mountain Daylight Time),1.66E+12,5.086683333,slider_rating,3,no,no,no,no,no
226,39160,26,N/a,Graduated High School,1.66E+12,Female,English,images/DOWNHazard100UPHazard0.gif,The disappearance of the rock <strong>stopped</strong> the farmer from reaching the <strong>apple</strong>.,The disappearance of the rock <strong>got</strong> the farmer to reach the <strong>apple</strong>.,The disappearance of the rock <strong>let</strong> the farmer reach the <strong>apple</strong>.,The wizard <strong>moved</strong> his wand.,The disappearance of the rock <strong>caused</strong> the farmer to reach the <strong>apple</strong>.,0,100,100,100,100,Mon Aug 29 2022 14:58:15 GMT-0600 (Mountain Daylight Time),1.66E+12,5.086683333,slider_rating,4,no,no,no,no,no
226,29440,26,N/a,Graduated High School,1.66E+12,Female,English,images/DOWNHazard100DOWNHazard0.gif,The disappearance of the rock <strong>stopped</strong> the farmer from reaching the <strong>apple</strong>.,The disappearance of the rock <strong>got</strong> the farmer to reach the <strong>apple</strong>.,The disappearance of the rock <strong>let</strong> the farmer reach the <strong>apple</strong>.,The wizard <strong>moved</strong> his wand.,The disappearance of the rock <strong>caused</strong> the farmer to reach the <strong>apple</strong>.,0,0,0,100,0,Mon Aug 29 2022 14:58:15 GMT-0600 (Mountain Daylight Time),1.66E+12,5.086683333,slider_rating,5,no,no,no,no,no
226,21110,26,N/a,Graduated High School,1.66E+12,Female,English,images/DOWNHazard100DOWNHazard100.gif,The presence of the rock <strong>stopped</strong> the farmer from reaching the <strong>apple</strong>.,The presence of the rock <strong>got</strong> the farmer to reach the <strong>apple</strong>.,The presence of the rock <strong>let</strong> the farmer reach the <strong>apple</strong>.,The wizard <strong>moved</strong> his wand.,The presence of the rock <strong>caused</strong> the farmer to reach the <strong>apple</strong>.,100,0,0,0,0,Mon Aug 29 2022 14:58:15 GMT-0600 (Mountain Daylight Time),1.66E+12,5.086683333,slider_rating,6,no,no,no,no,no
226,20333,26,N/a,Graduated High School,1.66E+12,Female,English,images/UPHazard0UPHazard0.gif,The absence of the rock <strong>stopped</strong> the farmer from reaching the <strong>apple</strong>.,The absence of the rock <strong>got</strong> the farmer to reach the <strong>apple</strong>.,The absence of the rock <strong>let</strong> the farmer reach the <strong>apple</strong>.,The wizard <strong>moved</strong> his wand.,The absence of the rock <strong>caused</strong> the farmer to reach the <strong>apple</strong>.,0,100,100,0,100,Mon Aug 29 2022 14:58:15 GMT-0600 (Mountain Daylight Time),1.66E+12,5.086683333,slider_rating,7,no,no,no,no,no
227,36140,20,,Graduated High School,1.66E+12,female,english,images/UPHazard0DOWNHazard100.gif,The appearance of the rock <strong>stopped</strong> the farmer from reaching the <strong>apple</strong>.,The wizard <strong>moved</strong> his wand.,The appearance of the rock <strong>got</strong> the farmer to reach the <strong>apple</strong>.,The appearance of the rock <strong>made</strong> the farmer reach the <strong>apple</strong>.,The appearance of the rock <strong>enabled</strong> the farmer to reach the <strong>apple</strong>.,100,100,0,0,100,Mon Aug 29 2022 13:59:15 GMT-0700 (Pacific Daylight Time),1.66E+12,4.293616667,slider_rating,1,no,no,no,no,no
227,39269,20,,Graduated High School,1.66E+12,female,english,images/DOWNHazard0DOWNHazard100.gif,The appearance of the rock <strong>stopped</strong> the farmer from reaching the <strong>apple</strong>.,The wizard <strong>moved</strong> his wand.,The appearance of the rock <strong>got</strong> the farmer to reach the <strong>apple</strong>.,The appearance of the rock <strong>made</strong> the farmer reach the <strong>apple</strong>.,The appearance of the rock <strong>enabled</strong> the farmer to reach the <strong>apple</strong>.,100,100,0,0,100,Mon Aug 29 2022 13:59:15 GMT-0700 (Pacific Daylight Time),1.66E+12,4.293616667,slider_rating,2,no,no,no,no,no
227,25630,20,,Graduated High School,1.66E+12,female,english,images/DOWNHazard0DOWNHazard0.gif,The absence of the rock <strong>stopped</strong> the farmer from reaching the <strong>apple</strong>.,The wizard <strong>moved</strong> his wand.,The absence of the rock <strong>got</strong> the farmer to reach the <strong>apple</strong>.,The absence of the rock <strong>made</strong> the farmer reach the <strong>apple</strong>.,The absence of the rock <strong>enabled</strong> the farmer to reach the <strong>apple</strong>.,0,0,0,0,0,Mon Aug 29 2022 13:59:15 GMT-0700 (Pacific Daylight Time),1.66E+12,4.293616667,slider_rating,3,no,no,no,no,no
227,28904,20,,Graduated High School,1.66E+12,female,english,images/UPHazard0UPHazard0.gif,The absence of the rock <strong>stopped</strong> the farmer from reaching the <strong>apple</strong>.,The wizard <strong>moved</strong> his wand.,The absence of the rock <strong>got</strong> the farmer to reach the <strong>apple</strong>.,The absence of the rock <strong>made</strong> the farmer reach the <strong>apple</strong>.,The absence of the rock <strong>enabled</strong> the farmer to reach the <strong>apple</strong>.,0,0,100,100,100,Mon Aug 29 2022 13:59:15 GMT-0700 (Pacific Daylight Time),1.66E+12,4.293616667,slider_rating,4,no,no,no,no,no
227,31647,20,,Graduated High School,1.66E+12,female,english,images/DOWNHazard100UPHazard0.gif,The disappearance of the rock <strong>stopped</strong> the farmer from reaching the <strong>apple</strong>.,The wizard <strong>moved</strong> his wand.,The disappearance of the rock <strong>got</strong> the farmer to reach the <strong>apple</strong>.,The disappearance of the rock <strong>made</strong> the farmer reach the <strong>apple</strong>.,The disappearance of the rock <strong>enabled</strong> the farmer to reach the <strong>apple</strong>.,0,100,100,100,100,Mon Aug 29 2022 13:59:15 GMT-0700 (Pacific Daylight Time),1.66E+12,4.293616667,slider_rating,5,no,no,no,no,no
227,21242,20,,Graduated High School,1.66E+12,female,english,images/DOWNHazard100DOWNHazard0.gif,The disappearance of the rock <strong>stopped</strong> the farmer from reaching the <strong>apple</strong>.,The wizard <strong>moved</strong> his wand.,The disappearance of the rock <strong>got</strong> the farmer to reach the <strong>apple</strong>.,The disappearance of the rock <strong>made</strong> the farmer reach the <strong>apple</strong>.,The disappearance of the rock <strong>enabled</strong> the farmer to reach the <strong>apple</strong>.,0,100,2,0,100,Mon Aug 29 2022 13:59:15 GMT-0700 (Pacific Daylight Time),1.66E+12,4.293616667,slider_rating,6,no,no,no,no,no
227,18412,20,,Graduated High School,1.66E+12,female,english,images/DOWNHazard100DOWNHazard100.gif,The presence of the rock <strong>stopped</strong> the farmer from reaching the <strong>apple</strong>.,The wizard <strong>moved</strong> his wand.,The presence of the rock <strong>got</strong> the farmer to reach the <strong>apple</strong>.,The presence of the rock <strong>made</strong> the farmer reach the <strong>apple</strong>.,The presence of the rock <strong>enabled</strong> the farmer to reach the <strong>apple</strong>.,100,100,0,1,100,Mon Aug 29 2022 13:59:15 GMT-0700 (Pacific Daylight Time),1.66E+12,4.293616667,slider_rating,7,no,no,no,no,no
228,112283,31,"There was an issue in Google Chrome where the images didn't load until I right clicked on them and selected ""load image.""

Also, the first image before the gifs are shown didn't load at all even when I did right click on it, but luckily the videos loaded so I could complete it.",Graduated High School,1.66E+12,male,english,images/UPHazard0DOWNHazard100.gif,The appearance of the rock <strong>prevented</strong> the farmer from reaching the <strong>apple</strong>.,The wizard <strong>moved</strong> his wand.,The appearance of the rock <strong>made</strong> the farmer reach the <strong>apple</strong>.,The appearance of the rock <strong>let</strong> the farmer reach the <strong>apple</strong>.,The appearance of the rock <strong>blocked</strong> the farmer from reaching the <strong>apple</strong>.,100,100,0,0,100,Mon Aug 29 2022 15:54:14 GMT-0500 (Central Daylight Time),1.66E+12,9.603866667,slider_rating,1,no,no,no,no,no
228,35499,31,"There was an issue in Google Chrome where the images didn't load until I right clicked on them and selected ""load image.""

Also, the first image before the gifs are shown didn't load at all even when I did right click on it, but luckily the videos loaded so I could complete it.",Graduated High School,1.66E+12,male,english,images/UPHazard0UPHazard0.gif,The absence of the rock <strong>prevented</strong> the farmer from reaching the <strong>apple</strong>.,The wizard <strong>moved</strong> his wand.,The absence of the rock <strong>made</strong> the farmer reach the <strong>apple</strong>.,The absence of the rock <strong>let</strong> the farmer reach the <strong>apple</strong>.,The absence of the rock <strong>blocked</strong> the farmer from reaching the <strong>apple</strong>.,0,0,100,100,0,Mon Aug 29 2022 15:54:14 GMT-0500 (Central Daylight Time),1.66E+12,9.603866667,slider_rating,2,no,no,no,no,no
228,43148,31,"There was an issue in Google Chrome where the images didn't load until I right clicked on them and selected ""load image.""

Also, the first image before the gifs are shown didn't load at all even when I did right click on it, but luckily the videos loaded so I could complete it.",Graduated High School,1.66E+12,male,english,images/DOWNHazard0DOWNHazard100.gif,The appearance of the rock <strong>prevented</strong> the farmer from reaching the <strong>apple</strong>.,The wizard <strong>moved</strong> his wand.,The appearance of the rock <strong>made</strong> the farmer reach the <strong>apple</strong>.,The appearance of the rock <strong>let</strong> the farmer reach the <strong>apple</strong>.,The appearance of the rock <strong>blocked</strong> the farmer from reaching the <strong>apple</strong>.,100,100,0,0,0,Mon Aug 29 2022 15:54:14 GMT-0500 (Central Daylight Time),1.66E+12,9.603866667,slider_rating,3,no,no,no,no,no
228,77467,31,"There was an issue in Google Chrome where the images didn't load until I right clicked on them and selected ""load image.""

