submission_id,RT,age,comments,education,endTime,gender,languages,picture,question0,question1,question2,question3,question4,startDate,startTime,timeSpent,trial_name,trial_number,yesno-choice0,yesno-choice1,yesno-choice2,yesno-choice3,yesno-choice4
293,67857,43,,Higher Degree,1.66185E+12,FEMALE,ENGLISH,images/UPHazard0DOWNHazard100.gif,The appearance of the rock <strong>allowed</strong> the farmer to reach the <strong>apple</strong>.,The appearance of the rock <strong>got</strong> the farmer to reach the <strong>apple</strong>.,The appearance of the rock <strong>stopped</strong> the farmer from reaching the <strong>apple</strong>.,The appearance of the rock <strong>caused</strong> the farmer to reach the <strong>apple</strong>.,The wizard <strong>moved</strong> his wand.,Tue Aug 30 2022 05:14:32 GMT-0500 (Central Daylight Time),1.66185E+12,6.259416667,slider_rating,1,no,no,yes,no,yes
293,49031,43,,Higher Degree,1.66185E+12,FEMALE,ENGLISH,images/DOWNHazard100DOWNHazard0.gif,The disappearance of the rock <strong>allowed</strong> the farmer to reach the <strong>apple</strong>.,The disappearance of the rock <strong>got</strong> the farmer to reach the <strong>apple</strong>.,The disappearance of the rock <strong>stopped</strong> the farmer from reaching the <strong>apple</strong>.,The disappearance of the rock <strong>caused</strong> the farmer to reach the <strong>apple</strong>.,The wizard <strong>moved</strong> his wand.,Tue Aug 30 2022 05:14:32 GMT-0500 (Central Daylight Time),1.66185E+12,6.259416667,slider_rating,2,no,no,no,no,yes
293,37783,43,,Higher Degree,1.66185E+12,FEMALE,ENGLISH,images/DOWNHazard100DOWNHazard100.gif,The presence of the rock <strong>allowed</strong> the farmer to reach the <strong>apple</strong>.,The presence of the rock <strong>got</strong> the farmer to reach the <strong>apple</strong>.,The presence of the rock <strong>stopped</strong> the farmer from reaching the <strong>apple</strong>.,The presence of the rock <strong>caused</strong> the farmer to reach the <strong>apple</strong>.,The wizard <strong>moved</strong> his wand.,Tue Aug 30 2022 05:14:32 GMT-0500 (Central Daylight Time),1.66185E+12,6.259416667,slider_rating,3,no,no,no,no,no
293,34441,43,,Higher Degree,1.66185E+12,FEMALE,ENGLISH,images/DOWNHazard100UPHazard0.gif,The disappearance of the rock <strong>allowed</strong> the farmer to reach the <strong>apple</strong>.,The disappearance of the rock <strong>got</strong> the farmer to reach the <strong>apple</strong>.,The disappearance of the rock <strong>stopped</strong> the farmer from reaching the <strong>apple</strong>.,The disappearance of the rock <strong>caused</strong> the farmer to reach the <strong>apple</strong>.,The wizard <strong>moved</strong> his wand.,Tue Aug 30 2022 05:14:32 GMT-0500 (Central Daylight Time),1.66185E+12,6.259416667,slider_rating,4,yes,yes,no,yes,yes
293,38425,43,,Higher Degree,1.66185E+12,FEMALE,ENGLISH,images/DOWNHazard0DOWNHazard0.gif,The absence of the rock <strong>allowed</strong> the farmer to reach the <strong>apple</strong>.,The absence of the rock <strong>got</strong> the farmer to reach the <strong>apple</strong>.,The absence of the rock <strong>stopped</strong> the farmer from reaching the <strong>apple</strong>.,The absence of the rock <strong>caused</strong> the farmer to reach the <strong>apple</strong>.,The wizard <strong>moved</strong> his wand.,Tue Aug 30 2022 05:14:32 GMT-0500 (Central Daylight Time),1.66185E+12,6.259416667,slider_rating,5,no,no,no,no,no
293,35449,43,,Higher Degree,1.66185E+12,FEMALE,ENGLISH,images/UPHazard0UPHazard0.gif,The absence of the rock <strong>allowed</strong> the farmer to reach the <strong>apple</strong>.,The absence of the rock <strong>got</strong> the farmer to reach the <strong>apple</strong>.,The absence of the rock <strong>stopped</strong> the farmer from reaching the <strong>apple</strong>.,The absence of the rock <strong>caused</strong> the farmer to reach the <strong>apple</strong>.,The wizard <strong>moved</strong> his wand.,Tue Aug 30 2022 05:14:32 GMT-0500 (Central Daylight Time),1.66185E+12,6.259416667,slider_rating,6,yes,yes,no,no,no
293,33031,43,,Higher Degree,1.66185E+12,FEMALE,ENGLISH,images/DOWNHazard0DOWNHazard100.gif,The appearance of the rock <strong>allowed</strong> the farmer to reach the <strong>apple</strong>.,The appearance of the rock <strong>got</strong> the farmer to reach the <strong>apple</strong>.,The appearance of the rock <strong>stopped</strong> the farmer from reaching the <strong>apple</strong>.,The appearance of the rock <strong>caused</strong> the farmer to reach the <strong>apple</strong>.,The wizard <strong>moved</strong> his wand.,Tue Aug 30 2022 05:14:32 GMT-0500 (Central Daylight Time),1.66185E+12,6.259416667,slider_rating,7,no,no,no,no,yes
294,40892,45,Thank you,Graduated High School,1.66186E+12,Female,English,images/UPHazard0DOWNHazard100.gif,The wizard <strong>moved</strong> his wand.,The appearance of the rock <strong>enabled</strong> the farmer to reach the <strong>apple</strong>.,The appearance of the rock <strong>blocked</strong> the farmer from reaching the <strong>apple</strong>.,The appearance of the rock <strong>caused</strong> the farmer to reach the <strong>apple</strong>.,The appearance of the rock <strong>stopped</strong> the farmer from reaching the <strong>apple</strong>.,Tue Aug 30 2022 05:23:06 GMT-0500 (Central Daylight Time),1.66185E+12,5.031966667,slider_rating,1,yes,no,yes,no,yes
294,28210,45,Thank you,Graduated High School,1.66186E+12,Female,English,images/DOWNHazard100DOWNHazard100.gif,The wizard <strong>moved</strong> his wand.,The presence of the rock <strong>enabled</strong> the farmer to reach the <strong>apple</strong>.,The presence of the rock <strong>blocked</strong> the farmer from reaching the <strong>apple</strong>.,The presence of the rock <strong>caused</strong> the farmer to reach the <strong>apple</strong>.,The presence of the rock <strong>stopped</strong> the farmer from reaching the <strong>apple</strong>.,Tue Aug 30 2022 05:23:06 GMT-0500 (Central Daylight Time),1.66185E+12,5.031966667,slider_rating,2,no,no,yes,no,no
294,23668,45,Thank you,Graduated High School,1.66186E+12,Female,English,images/DOWNHazard0DOWNHazard0.gif,The wizard <strong>moved</strong> his wand.,The absence of the rock <strong>enabled</strong> the farmer to reach the <strong>apple</strong>.,The absence of the rock <strong>blocked</strong> the farmer from reaching the <strong>apple</strong>.,The absence of the rock <strong>caused</strong> the farmer to reach the <strong>apple</strong>.,The absence of the rock <strong>stopped</strong> the farmer from reaching the <strong>apple</strong>.,Tue Aug 30 2022 05:23:06 GMT-0500 (Central Daylight Time),1.66185E+12,5.031966667,slider_rating,3,no,no,no,no,no
294,23619,45,Thank you,Graduated High School,1.66186E+12,Female,English,images/DOWNHazard100UPHazard0.gif,The wizard <strong>moved</strong> his wand.,The disappearance of the rock <strong>enabled</strong> the farmer to reach the <strong>apple</strong>.,The disappearance of the rock <strong>blocked</strong> the farmer from reaching the <strong>apple</strong>.,The disappearance of the rock <strong>caused</strong> the farmer to reach the <strong>apple</strong>.,The disappearance of the rock <strong>stopped</strong> the farmer from reaching the <strong>apple</strong>.,Tue Aug 30 2022 05:23:06 GMT-0500 (Central Daylight Time),1.66185E+12,5.031966667,slider_rating,4,yes,yes,no,yes,no
294,25458,45,Thank you,Graduated High School,1.66186E+12,Female,English,images/UPHazard0UPHazard0.gif,The wizard <strong>moved</strong> his wand.,The absence of the rock <strong>enabled</strong> the farmer to reach the <strong>apple</strong>.,The absence of the rock <strong>blocked</strong> the farmer from reaching the <strong>apple</strong>.,The absence of the rock <strong>caused</strong> the farmer to reach the <strong>apple</strong>.,The absence of the rock <strong>stopped</strong> the farmer from reaching the <strong>apple</strong>.,Tue Aug 30 2022 05:23:06 GMT-0500 (Central Daylight Time),1.66185E+12,5.031966667,slider_rating,5,no,yes,no,yes,no
294,28967,45,Thank you,Graduated High School,1.66186E+12,Female,English,images/DOWNHazard0DOWNHazard100.gif,The wizard <strong>moved</strong> his wand.,The appearance of the rock <strong>enabled</strong> the farmer to reach the <strong>apple</strong>.,The appearance of the rock <strong>blocked</strong> the farmer from reaching the <strong>apple</strong>.,The appearance of the rock <strong>caused</strong> the farmer to reach the <strong>apple</strong>.,The appearance of the rock <strong>stopped</strong> the farmer from reaching the <strong>apple</strong>.,Tue Aug 30 2022 05:23:06 GMT-0500 (Central Daylight Time),1.66185E+12,5.031966667,slider_rating,6,yes,no,yes,no,yes
294,25332,45,Thank you,Graduated High School,1.66186E+12,Female,English,images/DOWNHazard100DOWNHazard0.gif,The wizard <strong>moved</strong> his wand.,The disappearance of the rock <strong>enabled</strong> the farmer to reach the <strong>apple</strong>.,The disappearance of the rock <strong>blocked</strong> the farmer from reaching the <strong>apple</strong>.,The disappearance of the rock <strong>caused</strong> the farmer to reach the <strong>apple</strong>.,The disappearance of the rock <strong>stopped</strong> the farmer from reaching the <strong>apple</strong>.,Tue Aug 30 2022 05:23:06 GMT-0500 (Central Daylight Time),1.66185E+12,5.031966667,slider_rating,7,yes,yes,no,no,no
295,31910,,,Higher Degree,1.66186E+12,male,English,images/UPHazard0DOWNHazard100.gif,The appearance of the rock <strong>let</strong> the farmer reach the <strong>apple</strong>.,The appearance of the rock <strong>made</strong> the farmer reach the <strong>apple</strong>.,The wizard <strong>moved</strong> his wand.,The appearance of the rock <strong>prevented</strong> the farmer from reaching the <strong>apple</strong>.,The appearance of the rock <strong>stopped</strong> the farmer from reaching the <strong>apple</strong>.,Tue Aug 30 2022 05:24:09 GMT-0500 (Central Daylight Time),1.66186E+12,4.124666667,slider_rating,1,no,no,yes,yes,yes
295,25146,,,Higher Degree,1.66186E+12,male,English,images/DOWNHazard0DOWNHazard100.gif,The appearance of the rock <strong>let</strong> the farmer reach the <strong>apple</strong>.,The appearance of the rock <strong>made</strong> the farmer reach the <strong>apple</strong>.,The wizard <strong>moved</strong> his wand.,The appearance of the rock <strong>prevented</strong> the farmer from reaching the <strong>apple</strong>.,The appearance of the rock <strong>stopped</strong> the farmer from reaching the <strong>apple</strong>.,Tue Aug 30 2022 05:24:09 GMT-0500 (Central Daylight Time),1.66186E+12,4.124666667,slider_rating,2,no,no,yes,yes,yes
295,23445,,,Higher Degree,1.66186E+12,male,English,images/DOWNHazard100DOWNHazard100.gif,The presence of the rock <strong>let</strong> the farmer reach the <strong>apple</strong>.,The presence of the rock <strong>made</strong> the farmer reach the <strong>apple</strong>.,The wizard <strong>moved</strong> his wand.,The presence of the rock <strong>prevented</strong> the farmer from reaching the <strong>apple</strong>.,The presence of the rock <strong>stopped</strong> the farmer from reaching the <strong>apple</strong>.,Tue Aug 30 2022 05:24:09 GMT-0500 (Central Daylight Time),1.66186E+12,4.124666667,slider_rating,3,no,no,no,yes,yes
295,32100,,,Higher Degree,1.66186E+12,male,English,images/UPHazard0UPHazard0.gif,The absence of the rock <strong>let</strong> the farmer reach the <strong>apple</strong>.,The absence of the rock <strong>made</strong> the farmer reach the <strong>apple</strong>.,The wizard <strong>moved</strong> his wand.,The absence of the rock <strong>prevented</strong> the farmer from reaching the <strong>apple</strong>.,The absence of the rock <strong>stopped</strong> the farmer from reaching the <strong>apple</strong>.,Tue Aug 30 2022 05:24:09 GMT-0500 (Central Daylight Time),1.66186E+12,4.124666667,slider_rating,4,yes,yes,no,no,no
295,22149,,,Higher Degree,1.66186E+12,male,English,images/DOWNHazard100DOWNHazard0.gif,The disappearance of the rock <strong>let</strong> the farmer reach the <strong>apple</strong>.,The disappearance of the rock <strong>made</strong> the farmer reach the <strong>apple</strong>.,The wizard <strong>moved</strong> his wand.,The disappearance of the rock <strong>prevented</strong> the farmer from reaching the <strong>apple</strong>.,The disappearance of the rock <strong>stopped</strong> the farmer from reaching the <strong>apple</strong>.,Tue Aug 30 2022 05:24:09 GMT-0500 (Central Daylight Time),1.66186E+12,4.124666667,slider_rating,5,yes,no,yes,no,no
295,19757,,,Higher Degree,1.66186E+12,male,English,images/DOWNHazard0DOWNHazard0.gif,The absence of the rock <strong>let</strong> the farmer reach the <strong>apple</strong>.,The absence of the rock <strong>made</strong> the farmer reach the <strong>apple</strong>.,The wizard <strong>moved</strong> his wand.,The absence of the rock <strong>prevented</strong> the farmer from reaching the <strong>apple</strong>.,The absence of the rock <strong>stopped</strong> the farmer from reaching the <strong>apple</strong>.,Tue Aug 30 2022 05:24:09 GMT-0500 (Central Daylight Time),1.66186E+12,4.124666667,slider_rating,6,yes,no,no,no,no
295,18965,,,Higher Degree,1.66186E+12,male,English,images/DOWNHazard100UPHazard0.gif,The disappearance of the rock <strong>let</strong> the farmer reach the <strong>apple</strong>.,The disappearance of the rock <strong>made</strong> the farmer reach the <strong>apple</strong>.,The wizard <strong>moved</strong> his wand.,The disappearance of the rock <strong>prevented</strong> the farmer from reaching the <strong>apple</strong>.,The disappearance of the rock <strong>stopped</strong> the farmer from reaching the <strong>apple</strong>.,Tue Aug 30 2022 05:24:09 GMT-0500 (Central Daylight Time),1.66186E+12,4.124666667,slider_rating,7,yes,yes,yes,no,no
296,43926,33,,Graduated College,1.66186E+12,woman,english,images/UPHazard0DOWNHazard100.gif,The appearance of the rock <strong>stopped</strong> the farmer from reaching the <strong>apple</strong>.,The appearance of the rock <strong>allowed</strong> the farmer to reach the <strong>apple</strong>.,The appearance of the rock <strong>caused</strong> the farmer to reach the <strong>apple</strong>.,The appearance of the rock <strong>prevented</strong> the farmer from reaching the <strong>apple</strong>.,The wizard <strong>moved</strong> his wand.,Tue Aug 30 2022 05:27:20 GMT-0500 (Central Daylight Time),1.66186E+12,8.37655,slider_rating,1,yes,no,no,yes,yes
296,44187,33,,Graduated College,1.66186E+12,woman,english,images/UPHazard0UPHazard0.gif,The absence of the rock <strong>stopped</strong> the farmer from reaching the <strong>apple</strong>.,The absence of the rock <strong>allowed</strong> the farmer to reach the <strong>apple</strong>.,The absence of the rock <strong>caused</strong> the farmer to reach the <strong>apple</strong>.,The absence of the rock <strong>prevented</strong> the farmer from reaching the <strong>apple</strong>.,The wizard <strong>moved</strong> his wand.,Tue Aug 30 2022 05:27:20 GMT-0500 (Central Daylight Time),1.66186E+12,8.37655,slider_rating,2,no,yes,yes,no,no
296,44656,33,,Graduated College,1.66186E+12,woman,english,images/DOWNHazard0DOWNHazard0.gif,The absence of the rock <strong>stopped</strong> the farmer from reaching the <strong>apple</strong>.,The absence of the rock <strong>allowed</strong> the farmer to reach the <strong>apple</strong>.,The absence of the rock <strong>caused</strong> the farmer to reach the <strong>apple</strong>.,The absence of the rock <strong>prevented</strong> the farmer from reaching the <strong>apple</strong>.,The wizard <strong>moved</strong> his wand.,Tue Aug 30 2022 05:27:20 GMT-0500 (Central Daylight Time),1.66186E+12,8.37655,slider_rating,3,no,no,no,no,no
296,61287,33,,Graduated College,1.66186E+12,woman,english,images/DOWNHazard100DOWNHazard0.gif,The disappearance of the rock <strong>stopped</strong> the farmer from reaching the <strong>apple</strong>.,The disappearance of the rock <strong>allowed</strong> the farmer to reach the <strong>apple</strong>.,The disappearance of the rock <strong>caused</strong> the farmer to reach the <strong>apple</strong>.,The disappearance of the rock <strong>prevented</strong> the farmer from reaching the <strong>apple</strong>.,The wizard <strong>moved</strong> his wand.,Tue Aug 30 2022 05:27:20 GMT-0500 (Central Daylight Time),1.66186E+12,8.37655,slider_rating,4,no,no,no,no,yes
296,113319,33,,Graduated College,1.66186E+12,woman,english,images/DOWNHazard100UPHazard0.gif,The disappearance of the rock <strong>stopped</strong> the farmer from reaching the <strong>apple</strong>.,The disappearance of the rock <strong>allowed</strong> the farmer to reach the <strong>apple</strong>.,The disappearance of the rock <strong>caused</strong> the farmer to reach the <strong>apple</strong>.,The disappearance of the rock <strong>prevented</strong> the farmer from reaching the <strong>apple</strong>.,The wizard <strong>moved</strong> his wand.,Tue Aug 30 2022 05:27:20 GMT-0500 (Central Daylight Time),1.66186E+12,8.37655,slider_rating,5,no,yes,no,no,yes
296,48251,33,,Graduated College,1.66186E+12,woman,english,images/DOWNHazard100DOWNHazard100.gif,The presence of the rock <strong>stopped</strong> the farmer from reaching the <strong>apple</strong>.,The presence of the rock <strong>allowed</strong> the farmer to reach the <strong>apple</strong>.,The presence of the rock <strong>caused</strong> the farmer to reach the <strong>apple</strong>.,The presence of the rock <strong>prevented</strong> the farmer from reaching the <strong>apple</strong>.,The wizard <strong>moved</strong> his wand.,Tue Aug 30 2022 05:27:20 GMT-0500 (Central Daylight Time),1.66186E+12,8.37655,slider_rating,6,yes,no,no,yes,no
296,47624,33,,Graduated College,1.66186E+12,woman,english,images/DOWNHazard0DOWNHazard100.gif,The appearance of the rock <strong>stopped</strong> the farmer from reaching the <strong>apple</strong>.,The appearance of the rock <strong>allowed</strong> the farmer to reach the <strong>apple</strong>.,The appearance of the rock <strong>caused</strong> the farmer to reach the <strong>apple</strong>.,The appearance of the rock <strong>prevented</strong> the farmer from reaching the <strong>apple</strong>.,The wizard <strong>moved</strong> his wand.,Tue Aug 30 2022 05:27:20 GMT-0500 (Central Daylight Time),1.66186E+12,8.37655,slider_rating,7,no,no,no,yes,yes
297,65740,42,"No, thank you.",Higher Degree,1.66186E+12,Male,English,images/UPHazard0DOWNHazard100.gif,The appearance of the rock <strong>let</strong> the farmer reach the <strong>apple</strong>.,The wizard <strong>moved</strong> his wand.,The appearance of the rock <strong>blocked</strong> the farmer from reaching the <strong>apple</strong>.,The appearance of the rock <strong>made</strong> the farmer reach the <strong>apple</strong>.,The appearance of the rock <strong>allowed</strong> the farmer to reach the <strong>apple</strong>.,Tue Aug 30 2022 06:31:40 GMT-0400 (Eastern Daylight Time),1.66186E+12,5.5955,slider_rating,1,no,yes,yes,no,no
297,39398,42,"No, thank you.",Higher Degree,1.66186E+12,Male,English,images/UPHazard0UPHazard0.gif,The absence of the rock <strong>let</strong> the farmer reach the <strong>apple</strong>.,The wizard <strong>moved</strong> his wand.,The absence of the rock <strong>blocked</strong> the farmer from reaching the <strong>apple</strong>.,The absence of the rock <strong>made</strong> the farmer reach the <strong>apple</strong>.,The absence of the rock <strong>allowed</strong> the farmer to reach the <strong>apple</strong>.,Tue Aug 30 2022 06:31:40 GMT-0400 (Eastern Daylight Time),1.66186E+12,5.5955,slider_rating,2,yes,no,no,no,yes
297,29961,42,"No, thank you.",Higher Degree,1.66186E+12,Male,English,images/DOWNHazard100UPHazard0.gif,The disappearance of the rock <strong>let</strong> the farmer reach the <strong>apple</strong>.,The wizard <strong>moved</strong> his wand.,The disappearance of the rock <strong>blocked</strong> the farmer from reaching the <strong>apple</strong>.,The disappearance of the rock <strong>made</strong> the farmer reach the <strong>apple</strong>.,The disappearance of the rock <strong>allowed</strong> the farmer to reach the <strong>apple</strong>.,Tue Aug 30 2022 06:31:40 GMT-0400 (Eastern Daylight Time),1.66186E+12,5.5955,slider_rating,3,yes,yes,no,no,yes
297,31461,42,"No, thank you.",Higher Degree,1.66186E+12,Male,English,images/DOWNHazard0DOWNHazard0.gif,The absence of the rock <strong>let</strong> the farmer reach the <strong>apple</strong>.,The wizard <strong>moved</strong> his wand.,The absence of the rock <strong>blocked</strong> the farmer from reaching the <strong>apple</strong>.,The absence of the rock <strong>made</strong> the farmer reach the <strong>apple</strong>.,The absence of the rock <strong>allowed</strong> the farmer to reach the <strong>apple</strong>.,Tue Aug 30 2022 06:31:40 GMT-0400 (Eastern Daylight Time),1.66186E+12,5.5955,slider_rating,4,no,no,no,no,yes
297,31585,42,"No, thank you.",Higher Degree,1.66186E+12,Male,English,images/DOWNHazard100DOWNHazard100.gif,The presence of the rock <strong>let</strong> the farmer reach the <strong>apple</strong>.,The wizard <strong>moved</strong> his wand.,The presence of the rock <strong>blocked</strong> the farmer from reaching the <strong>apple</strong>.,The presence of the rock <strong>made</strong> the farmer reach the <strong>apple</strong>.,The presence of the rock <strong>allowed</strong> the farmer to reach the <strong>apple</strong>.,Tue Aug 30 2022 06:31:40 GMT-0400 (Eastern Daylight Time),1.66186E+12,5.5955,slider_rating,5,no,no,yes,no,no
297,26934,42,"No, thank you.",Higher Degree,1.66186E+12,Male,English,images/DOWNHazard100DOWNHazard0.gif,The disappearance of the rock <strong>let</strong> the farmer reach the <strong>apple</strong>.,The wizard <strong>moved</strong> his wand.,The disappearance of the rock <strong>blocked</strong> the farmer from reaching the <strong>apple</strong>.,The disappearance of the rock <strong>made</strong> the farmer reach the <strong>apple</strong>.,The disappearance of the rock <strong>allowed</strong> the farmer to reach the <strong>apple</strong>.,Tue Aug 30 2022 06:31:40 GMT-0400 (Eastern Daylight Time),1.66186E+12,5.5955,slider_rating,6,no,yes,no,no,yes
297,24800,42,"No, thank you.",Higher Degree,1.66186E+12,Male,English,images/DOWNHazard0DOWNHazard100.gif,The appearance of the rock <strong>let</strong> the farmer reach the <strong>apple</strong>.,The wizard <strong>moved</strong> his wand.,The appearance of the rock <strong>blocked</strong> the farmer from reaching the <strong>apple</strong>.,The appearance of the rock <strong>made</strong> the farmer reach the <strong>apple</strong>.,The appearance of the rock <strong>allowed</strong> the farmer to reach the <strong>apple</strong>.,Tue Aug 30 2022 06:31:40 GMT-0400 (Eastern Daylight Time),1.66186E+12,5.5955,slider_rating,7,no,yes,yes,no,no
298,40102,22,,Graduated High School,1.66186E+12,Female,English,images/UPHazard0DOWNHazard100.gif,The appearance of the rock <strong>allowed</strong> the farmer to reach the <strong>apple</strong>.,The wizard <strong>moved</strong> his wand.,The appearance of the rock <strong>got</strong> the farmer to reach the <strong>apple</strong>.,The appearance of the rock <strong>blocked</strong> the farmer from reaching the <strong>apple</strong>.,The appearance of the rock <strong>made</strong> the farmer reach the <strong>apple</strong>.,Tue Aug 30 2022 03:38:54 GMT-0700 (Pacific Daylight Time),1.66186E+12,4.628083333,slider_rating,1,no,yes,no,yes,no
298,24446,22,,Graduated High School,1.66186E+12,Female,English,images/UPHazard0UPHazard0.gif,The absence of the rock <strong>allowed</strong> the farmer to reach the <strong>apple</strong>.,The wizard <strong>moved</strong> his wand.,The absence of the rock <strong>got</strong> the farmer to reach the <strong>apple</strong>.,The absence of the rock <strong>blocked</strong> the farmer from reaching the <strong>apple</strong>.,The absence of the rock <strong>made</strong> the farmer reach the <strong>apple</strong>.,Tue Aug 30 2022 03:38:54 GMT-0700 (Pacific Daylight Time),1.66186E+12,4.628083333,slider_rating,2,yes,no,yes,no,yes
298,30507,22,,Graduated High School,1.66186E+12,Female,English,images/DOWNHazard100DOWNHazard0.gif,The disappearance of the rock <strong>allowed</strong> the farmer to reach the <strong>apple</strong>.,The wizard <strong>moved</strong> his wand.,The disappearance of the rock <strong>got</strong> the farmer to reach the <strong>apple</strong>.,The disappearance of the rock <strong>blocked</strong> the farmer from reaching the <strong>apple</strong>.,The disappearance of the rock <strong>made</strong> the farmer reach the <strong>apple</strong>.,Tue Aug 30 2022 03:38:54 GMT-0700 (Pacific Daylight Time),1.66186E+12,4.628083333,slider_rating,3,yes,yes,no,no,no
298,20834,22,,Graduated High School,1.66186E+12,Female,English,images/DOWNHazard0DOWNHazard100.gif,The appearance of the rock <strong>allowed</strong> the farmer to reach the <strong>apple</strong>.,The wizard <strong>moved</strong> his wand.,The appearance of the rock <strong>got</strong> the farmer to reach the <strong>apple</strong>.,The appearance of the rock <strong>blocked</strong> the farmer from reaching the <strong>apple</strong>.,The appearance of the rock <strong>made</strong> the farmer reach the <strong>apple</strong>.,Tue Aug 30 2022 03:38:54 GMT-0700 (Pacific Daylight Time),1.66186E+12,4.628083333,slider_rating,4,no,yes,no,yes,no
298,29922,22,,Graduated High School,1.66186E+12,Female,English,images/DOWNHazard100DOWNHazard100.gif,The presence of the rock <strong>allowed</strong> the farmer to reach the <strong>apple</strong>.,The wizard <strong>moved</strong> his wand.,The presence of the rock <strong>got</strong> the farmer to reach the <strong>apple</strong>.,The presence of the rock <strong>blocked</strong> the farmer from reaching the <strong>apple</strong>.,The presence of the rock <strong>made</strong> the farmer reach the <strong>apple</strong>.,Tue Aug 30 2022 03:38:54 GMT-0700 (Pacific Daylight Time),1.66186E+12,4.628083333,slider_rating,5,no,no,no,yes,no
298,24831,22,,Graduated High School,1.66186E+12,Female,English,images/DOWNHazard0DOWNHazard0.gif,The absence of the rock <strong>allowed</strong> the farmer to reach the <strong>apple</strong>.,The wizard <strong>moved</strong> his wand.,The absence of the rock <strong>got</strong> the farmer to reach the <strong>apple</strong>.,The absence of the rock <strong>blocked</strong> the farmer from reaching the <strong>apple</strong>.,The absence of the rock <strong>made</strong> the farmer reach the <strong>apple</strong>.,Tue Aug 30 2022 03:38:54 GMT-0700 (Pacific Daylight Time),1.66186E+12,4.628083333,slider_rating,6,yes,no,no,no,no
298,26170,22,,Graduated High School,1.66186E+12,Female,English,images/DOWNHazard100UPHazard0.gif,The disappearance of the rock <strong>allowed</strong> the farmer to reach the <strong>apple</strong>.,The wizard <strong>moved</strong> his wand.,The disappearance of the rock <strong>got</strong> the farmer to reach the <strong>apple</strong>.,The disappearance of the rock <strong>blocked</strong> the farmer from reaching the <strong>apple</strong>.,The disappearance of the rock <strong>made</strong> the farmer reach the <strong>apple</strong>.,Tue Aug 30 2022 03:38:54 GMT-0700 (Pacific Daylight Time),1.66186E+12,4.628083333,slider_rating,7,yes,yes,yes,no,yes
299,34371,44,,Graduated College,1.66186E+12,F,English,images/UPHazard0DOWNHazard100.gif,The appearance of the rock <strong>caused</strong> the farmer to reach the <strong>apple</strong>.,The appearance of the rock <strong>enabled</strong> the farmer to reach the <strong>apple</strong>.,The appearance of the rock <strong>let</strong> the farmer reach the <strong>apple</strong>.,The appearance of the rock <strong>blocked</strong> the farmer from reaching the <strong>apple</strong>.,The wizard <strong>moved</strong> his wand.,Tue Aug 30 2022 06:41:31 GMT-0400 (Eastern Daylight Time),1.66186E+12,6.91525,slider_rating,1,no,no,no,yes,yes
299,21504,44,,Graduated College,1.66186E+12,F,English,images/DOWNHazard100DOWNHazard100.gif,The presence of the rock <strong>caused</strong> the farmer to reach the <strong>apple</strong>.,The presence of the rock <strong>enabled</strong> the farmer to reach the <strong>apple</strong>.,The presence of the rock <strong>let</strong> the farmer reach the <strong>apple</strong>.,The presence of the rock <strong>blocked</strong> the farmer from reaching the <strong>apple</strong>.,The wizard <strong>moved</strong> his wand.,Tue Aug 30 2022 06:41:31 GMT-0400 (Eastern Daylight Time),1.66186E+12,6.91525,slider_rating,2,no,no,no,yes,no
299,20141,44,,Graduated College,1.66186E+12,F,English,images/DOWNHazard0DOWNHazard0.gif,The absence of the rock <strong>caused</strong> the farmer to reach the <strong>apple</strong>.,The absence of the rock <strong>enabled</strong> the farmer to reach the <strong>apple</strong>.,The absence of the rock <strong>let</strong> the farmer reach the <strong>apple</strong>.,The absence of the rock <strong>blocked</strong> the farmer from reaching the <strong>apple</strong>.,The wizard <strong>moved</strong> his wand.,Tue Aug 30 2022 06:41:31 GMT-0400 (Eastern Daylight Time),1.66186E+12,6.91525,slider_rating,3,no,no,no,no,no
299,19165,44,,Graduated College,1.66186E+12,F,English,images/UPHazard0UPHazard0.gif,The absence of the rock <strong>caused</strong> the farmer to reach the <strong>apple</strong>.,The absence of the rock <strong>enabled</strong> the farmer to reach the <strong>apple</strong>.,The absence of the rock <strong>let</strong> the farmer reach the <strong>apple</strong>.,The absence of the rock <strong>blocked</strong> the farmer from reaching the <strong>apple</strong>.,The wizard <strong>moved</strong> his wand.,Tue Aug 30 2022 06:41:31 GMT-0400 (Eastern Daylight Time),1.66186E+12,6.91525,slider_rating,4,yes,yes,yes,no,no
299,28373,44,,Graduated College,1.66186E+12,F,English,images/DOWNHazard100DOWNHazard0.gif,The disappearance of the rock <strong>caused</strong> the farmer to reach the <strong>apple</strong>.,The disappearance of the rock <strong>enabled</strong> the farmer to reach the <strong>apple</strong>.,The disappearance of the rock <strong>let</strong> the farmer reach the <strong>apple</strong>.,The disappearance of the rock <strong>blocked</strong> the farmer from reaching the <strong>apple</strong>.,The wizard <strong>moved</strong> his wand.,Tue Aug 30 2022 06:41:31 GMT-0400 (Eastern Daylight Time),1.66186E+12,6.91525,slider_rating,5,no,no,no,no,no
299,22439,44,,Graduated College,1.66186E+12,F,English,images/DOWNHazard100UPHazard0.gif,The disappearance of the rock <strong>caused</strong> the farmer to reach the <strong>apple</strong>.,The disappearance of the rock <strong>enabled</strong> the farmer to reach the <strong>apple</strong>.,The disappearance of the rock <strong>let</strong> the farmer reach the <strong>apple</strong>.,The disappearance of the rock <strong>blocked</strong> the farmer from reaching the <strong>apple</strong>.,The wizard <strong>moved</strong> his wand.,Tue Aug 30 2022 06:41:31 GMT-0400 (Eastern Daylight Time),1.66186E+12,6.91525,slider_rating,6,yes,yes,yes,no,yes
299,18588,44,,Graduated College,1.66186E+12,F,English,images/DOWNHazard0DOWNHazard100.gif,The appearance of the rock <strong>caused</strong> the farmer to reach the <strong>apple</strong>.,The appearance of the rock <strong>enabled</strong> the farmer to reach the <strong>apple</strong>.,The appearance of the rock <strong>let</strong> the farmer reach the <strong>apple</strong>.,The appearance of the rock <strong>blocked</strong> the farmer from reaching the <strong>apple</strong>.,The wizard <strong>moved</strong> his wand.,Tue Aug 30 2022 06:41:31 GMT-0400 (Eastern Daylight Time),1.66186E+12,6.91525,slider_rating,7,no,no,no,yes,yes
302,51227,40,,Graduated College,1.66186E+12,female,english,images/UPHazard0DOWNHazard100.gif,The appearance of the rock <strong>got</strong> the farmer to reach the <strong>apple</strong>.,The wizard <strong>moved</strong> his wand.,The appearance of the rock <strong>prevented</strong> the farmer from reaching the <strong>apple</strong>.,The appearance of the rock <strong>enabled</strong> the farmer to reach the <strong>apple</strong>.,The appearance of the rock <strong>let</strong> the farmer reach the <strong>apple</strong>.,Tue Aug 30 2022 03:53:59 GMT-0700 (Pacific Daylight Time),1.66186E+12,6.455233333,slider_rating,1,no,yes,yes,no,no
302,27090,40,,Graduated College,1.66186E+12,female,english,images/UPHazard0UPHazard0.gif,The absence of the rock <strong>got</strong> the farmer to reach the <strong>apple</strong>.,The wizard <strong>moved</strong> his wand.,The absence of the rock <strong>prevented</strong> the farmer from reaching the <strong>apple</strong>.,The absence of the rock <strong>enabled</strong> the farmer to reach the <strong>apple</strong>.,The absence of the rock <strong>let</strong> the farmer reach the <strong>apple</strong>.,Tue Aug 30 2022 03:53:59 GMT-0700 (Pacific Daylight Time),1.66186E+12,6.455233333,slider_rating,2,yes,no,no,yes,yes
302,24885,40,,Graduated College,1.66186E+12,female,english,images/DOWNHazard0DOWNHazard100.gif,The appearance of the rock <strong>got</strong> the farmer to reach the <strong>apple</strong>.,The wizard <strong>moved</strong> his wand.,The appearance of the rock <strong>prevented</strong> the farmer from reaching the <strong>apple</strong>.,The appearance of the rock <strong>enabled</strong> the farmer to reach the <strong>apple</strong>.,The appearance of the rock <strong>let</strong> the farmer reach the <strong>apple</strong>.,Tue Aug 30 2022 03:53:59 GMT-0700 (Pacific Daylight Time),1.66186E+12,6.455233333,slider_rating,3,no,yes,yes,no,no
302,38554,40,,Graduated College,1.66186E+12,female,english,images/DOWNHazard100UPHazard0.gif,The disappearance of the rock <strong>got</strong> the farmer to reach the <strong>apple</strong>.,The wizard <strong>moved</strong> his wand.,The disappearance of the rock <strong>prevented</strong> the farmer from reaching the <strong>apple</strong>.,The disappearance of the rock <strong>enabled</strong> the farmer to reach the <strong>apple</strong>.,The disappearance of the rock <strong>let</strong> the farmer reach the <strong>apple</strong>.,Tue Aug 30 2022 03:53:59 GMT-0700 (Pacific Daylight Time),1.66186E+12,6.455233333,slider_rating,4,yes,yes,no,yes,yes
302,48110,40,,Graduated College,1.66186E+12,female,english,images/DOWNHazard0DOWNHazard0.gif,The absence of the rock <strong>got</strong> the farmer to reach the <strong>apple</strong>.,The wizard <strong>moved</strong> his wand.,The absence of the rock <strong>prevented</strong> the farmer from reaching the <strong>apple</strong>.,The absence of the rock <strong>enabled</strong> the farmer to reach the <strong>apple</strong>.,The absence of the rock <strong>let</strong> the farmer reach the <strong>apple</strong>.,Tue Aug 30 2022 03:53:59 GMT-0700 (Pacific Daylight Time),1.66186E+12,6.455233333,slider_rating,5,no,no,no,no,yes
302,46414,40,,Graduated College,1.66186E+12,female,english,images/DOWNHazard100DOWNHazard100.gif,The presence of the rock <strong>got</strong> the farmer to reach the <strong>apple</strong>.,The wizard <strong>moved</strong> his wand.,The presence of the rock <strong>prevented</strong> the farmer from reaching the <strong>apple</strong>.,The presence of the rock <strong>enabled</strong> the farmer to reach the <strong>apple</strong>.,The presence of the rock <strong>let</strong> the farmer reach the <strong>apple</strong>.,Tue Aug 30 2022 03:53:59 GMT-0700 (Pacific Daylight Time),1.66186E+12,6.455233333,slider_rating,6,no,no,yes,no,no
302,34156,40,,Graduated College,1.66186E+12,female,english,images/DOWNHazard100DOWNHazard0.gif,The disappearance of the rock <strong>got</strong> the farmer to reach the <strong>apple</strong>.,The wizard <strong>moved</strong> his wand.,The disappearance of the rock <strong>prevented</strong> the farmer from reaching the <strong>apple</strong>.,The disappearance of the rock <strong>enabled</strong> the farmer to reach the <strong>apple</strong>.,The disappearance of the rock <strong>let</strong> the farmer reach the <strong>apple</strong>.,Tue Aug 30 2022 03:53:59 GMT-0700 (Pacific Daylight Time),1.66186E+12,6.455233333,slider_rating,7,no,yes,no,yes,yes
319,44222,46,N/A,Higher Degree,1.66186E+12,Female,English,images/UPHazard0DOWNHazard100.gif,The appearance of the rock <strong>got</strong> the farmer to reach the <strong>apple</strong>.,The appearance of the rock <strong>caused</strong> the farmer to reach the <strong>apple</strong>.,The wizard <strong>moved</strong> his wand.,The appearance of the rock <strong>enabled</strong> the farmer to reach the <strong>apple</strong>.,The appearance of the rock <strong>prevented</strong> the farmer from reaching the <strong>apple</strong>.,Tue Aug 30 2022 07:12:47 GMT-0400 (Eastern Daylight Time),1.66186E+12,5.6382,slider_rating,1,no,no,yes,no,yes
319,31071,46,N/A,Higher Degree,1.66186E+12,Female,English,images/DOWNHazard100DOWNHazard100.gif,The presence of the rock <strong>got</strong> the farmer to reach the <strong>apple</strong>.,The presence of the rock <strong>caused</strong> the farmer to reach the <strong>apple</strong>.,The wizard <strong>moved</strong> his wand.,The presence of the rock <strong>enabled</strong> the farmer to reach the <strong>apple</strong>.,The presence of the rock <strong>prevented</strong> the farmer from reaching the <strong>apple</strong>.,Tue Aug 30 2022 07:12:47 GMT-0400 (Eastern Daylight Time),1.66186E+12,5.6382,slider_rating,2,no,no,no,no,yes
319,39726,46,N/A,Higher Degree,1.66186E+12,Female,English,images/DOWNHazard100DOWNHazard0.gif,The disappearance of the rock <strong>got</strong> the farmer to reach the <strong>apple</strong>.,The disappearance of the rock <strong>caused</strong> the farmer to reach the <strong>apple</strong>.,The wizard <strong>moved</strong> his wand.,The disappearance of the rock <strong>enabled</strong> the farmer to reach the <strong>apple</strong>.,The disappearance of the rock <strong>prevented</strong> the farmer from reaching the <strong>apple</strong>.,Tue Aug 30 2022 07:12:47 GMT-0400 (Eastern Daylight Time),1.66186E+12,5.6382,slider_rating,3,no,no,yes,yes,no
319,53295,46,N/A,Higher Degree,1.66186E+12,Female,English,images/DOWNHazard0DOWNHazard0.gif,The absence of the rock <strong>got</strong> the farmer to reach the <strong>apple</strong>.,The absence of the rock <strong>caused</strong> the farmer to reach the <strong>apple</strong>.,The wizard <strong>moved</strong> his wand.,The absence of the rock <strong>enabled</strong> the farmer to reach the <strong>apple</strong>.,The absence of the rock <strong>prevented</strong> the farmer from reaching the <strong>apple</strong>.,Tue Aug 30 2022 07:12:47 GMT-0400 (Eastern Daylight Time),1.66186E+12,5.6382,slider_rating,4,no,no,no,yes,no
319,27204,46,N/A,Higher Degree,1.66186E+12,Female,English,images/UPHazard0UPHazard0.gif,The absence of the rock <strong>got</strong> the farmer to reach the <strong>apple</strong>.,The absence of the rock <strong>caused</strong> the farmer to reach the <strong>apple</strong>.,The wizard <strong>moved</strong> his wand.,The absence of the rock <strong>enabled</strong> the farmer to reach the <strong>apple</strong>.,The absence of the rock <strong>prevented</strong> the farmer from reaching the <strong>apple</strong>.,Tue Aug 30 2022 07:12:47 GMT-0400 (Eastern Daylight Time),1.66186E+12,5.6382,slider_rating,5,yes,yes,no,yes,no
319,38337,46,N/A,Higher Degree,1.66186E+12,Female,English,images/DOWNHazard100UPHazard0.gif,The disappearance of the rock <strong>got</strong> the farmer to reach the <strong>apple</strong>.,The disappearance of the rock <strong>caused</strong> the farmer to reach the <strong>apple</strong>.,The wizard <strong>moved</strong> his wand.,The disappearance of the rock <strong>enabled</strong> the farmer to reach the <strong>apple</strong>.,The disappearance of the rock <strong>prevented</strong> the farmer from reaching the <strong>apple</strong>.,Tue Aug 30 2022 07:12:47 GMT-0400 (Eastern Daylight Time),1.66186E+12,5.6382,slider_rating,6,yes,yes,yes,yes,no
319,27198,46,N/A,Higher Degree,1.66186E+12,Female,English,images/DOWNHazard0DOWNHazard100.gif,The appearance of the rock <strong>got</strong> the farmer to reach the <strong>apple</strong>.,The appearance of the rock <strong>caused</strong> the farmer to reach the <strong>apple</strong>.,The wizard <strong>moved</strong> his wand.,The appearance of the rock <strong>enabled</strong> the farmer to reach the <strong>apple</strong>.,The appearance of the rock <strong>prevented</strong> the farmer from reaching the <strong>apple</strong>.,Tue Aug 30 2022 07:12:47 GMT-0400 (Eastern Daylight Time),1.66186E+12,5.6382,slider_rating,7,no,no,yes,no,yes
300,27440,33,,Graduated College,1.66186E+12,Male,English,images/UPHazard0DOWNHazard100.gif,The wizard <strong>moved</strong> his wand.,The appearance of the rock <strong>prevented</strong> the farmer from reaching the <strong>apple</strong>.,The appearance of the rock <strong>got</strong> the farmer to reach the <strong>apple</strong>.,The appearance of the rock <strong>allowed</strong> the farmer to reach the <strong>apple</strong>.,The appearance of the rock <strong>blocked</strong> the farmer from reaching the <strong>apple</strong>.,Tue Aug 30 2022 05:45:19 GMT-0500 (Central Daylight Time),1.66186E+12,3.826783333,slider_rating,1,yes,yes,no,no,yes
300,15855,33,,Graduated College,1.66186E+12,Male,English,images/DOWNHazard0DOWNHazard0.gif,The wizard <strong>moved</strong> his wand.,The absence of the rock <strong>prevented</strong> the farmer from reaching the <strong>apple</strong>.,The absence of the rock <strong>got</strong> the farmer to reach the <strong>apple</strong>.,The absence of the rock <strong>allowed</strong> the farmer to reach the <strong>apple</strong>.,The absence of the rock <strong>blocked</strong> the farmer from reaching the <strong>apple</strong>.,Tue Aug 30 2022 05:45:19 GMT-0500 (Central Daylight Time),1.66186E+12,3.826783333,slider_rating,2,no,no,no,no,no
300,28790,33,,Graduated College,1.66186E+12,Male,English,images/UPHazard0UPHazard0.gif,The wizard <strong>moved</strong> his wand.,The absence of the rock <strong>prevented</strong> the farmer from reaching the <strong>apple</strong>.,The absence of the rock <strong>got</strong> the farmer to reach the <strong>apple</strong>.,The absence of the rock <strong>allowed</strong> the farmer to reach the <strong>apple</strong>.,The absence of the rock <strong>blocked</strong> the farmer from reaching the <strong>apple</strong>.,Tue Aug 30 2022 05:45:19 GMT-0500 (Central Daylight Time),1.66186E+12,3.826783333,slider_rating,3,no,no,yes,yes,no
300,26894,33,,Graduated College,1.66186E+12,Male,English,images/DOWNHazard100DOWNHazard100.gif,The wizard <strong>moved</strong> his wand.,The presence of the rock <strong>prevented</strong> the farmer from reaching the <strong>apple</strong>.,The presence of the rock <strong>got</strong> the farmer to reach the <strong>apple</strong>.,The presence of the rock <strong>allowed</strong> the farmer to reach the <strong>apple</strong>.,The presence of the rock <strong>blocked</strong> the farmer from reaching the <strong>apple</strong>.,Tue Aug 30 2022 05:45:19 GMT-0500 (Central Daylight Time),1.66186E+12,3.826783333,slider_rating,4,no,no,no,no,no
300,22094,33,,Graduated College,1.66186E+12,Male,English,images/DOWNHazard100DOWNHazard0.gif,The wizard <strong>moved</strong> his wand.,The disappearance of the rock <strong>prevented</strong> the farmer from reaching the <strong>apple</strong>.,The disappearance of the rock <strong>got</strong> the farmer to reach the <strong>apple</strong>.,The disappearance of the rock <strong>allowed</strong> the farmer to reach the <strong>apple</strong>.,The disappearance of the rock <strong>blocked</strong> the farmer from reaching the <strong>apple</strong>.,Tue Aug 30 2022 05:45:19 GMT-0500 (Central Daylight Time),1.66186E+12,3.826783333,slider_rating,5,yes,no,no,no,no
300,34422,33,,Graduated College,1.66186E+12,Male,English,images/DOWNHazard100UPHazard0.gif,The wizard <strong>moved</strong> his wand.,The disappearance of the rock <strong>prevented</strong> the farmer from reaching the <strong>apple</strong>.,The disappearance of the rock <strong>got</strong> the farmer to reach the <strong>apple</strong>.,The disappearance of the rock <strong>allowed</strong> the farmer to reach the <strong>apple</strong>.,The disappearance of the rock <strong>blocked</strong> the farmer from reaching the <strong>apple</strong>.,Tue Aug 30 2022 05:45:19 GMT-0500 (Central Daylight Time),1.66186E+12,3.826783333,slider_rating,6,yes,no,yes,yes,no
300,24095,33,,Graduated College,1.66186E+12,Male,English,images/DOWNHazard0DOWNHazard100.gif,The wizard <strong>moved</strong> his wand.,The appearance of the rock <strong>prevented</strong> the farmer from reaching the <strong>apple</strong>.,The appearance of the rock <strong>got</strong> the farmer to reach the <strong>apple</strong>.,The appearance of the rock <strong>allowed</strong> the farmer to reach the <strong>apple</strong>.,The appearance of the rock <strong>blocked</strong> the farmer from reaching the <strong>apple</strong>.,Tue Aug 30 2022 05:45:19 GMT-0500 (Central Daylight Time),1.66186E+12,3.826783333,slider_rating,7,yes,no,no,no,no
301,27865,22,,Graduated College,1.66186E+12,female,english,images/UPHazard0DOWNHazard100.gif,The appearance of the rock <strong>stopped</strong> the farmer from reaching the <strong>apple</strong>.,The appearance of the rock <strong>got</strong> the farmer to reach the <strong>apple</strong>.,The appearance of the rock <strong>blocked</strong> the farmer from reaching the <strong>apple</strong>.,The wizard <strong>moved</strong> his wand.,The appearance of the rock <strong>enabled</strong> the farmer to reach the <strong>apple</strong>.,Tue Aug 30 2022 03:55:14 GMT-0700 (Pacific Daylight Time),1.66186E+12,3.583583333,slider_rating,1,yes,no,yes,yes,no
301,26830,22,,Graduated College,1.66186E+12,female,english,images/DOWNHazard100DOWNHazard100.gif,The presence of the rock <strong>stopped</strong> the farmer from reaching the <strong>apple</strong>.,The presence of the rock <strong>got</strong> the farmer to reach the <strong>apple</strong>.,The presence of the rock <strong>blocked</strong> the farmer from reaching the <strong>apple</strong>.,The wizard <strong>moved</strong> his wand.,The presence of the rock <strong>enabled</strong> the farmer to reach the <strong>apple</strong>.,Tue Aug 30 2022 03:55:14 GMT-0700 (Pacific Daylight Time),1.66186E+12,3.583583333,slider_rating,2,no,no,no,no,no
301,26131,22,,Graduated College,1.66186E+12,female,english,images/DOWNHazard100DOWNHazard0.gif,The disappearance of the rock <strong>stopped</strong> the farmer from reaching the <strong>apple</strong>.,The disappearance of the rock <strong>got</strong> the farmer to reach the <strong>apple</strong>.,The disappearance of the rock <strong>blocked</strong> the farmer from reaching the <strong>apple</strong>.,The wizard <strong>moved</strong> his wand.,The disappearance of the rock <strong>enabled</strong> the farmer to reach the <strong>apple</strong>.,Tue Aug 30 2022 03:55:14 GMT-0700 (Pacific Daylight Time),1.66186E+12,3.583583333,slider_rating,3,no,no,no,yes,no
301,21436,22,,Graduated College,1.66186E+12,female,english,images/UPHazard0UPHazard0.gif,The absence of the rock <strong>stopped</strong> the farmer from reaching the <strong>apple</strong>.,The absence of the rock <strong>got</strong> the farmer to reach the <strong>apple</strong>.,The absence of the rock <strong>blocked</strong> the farmer from reaching the <strong>apple</strong>.,The wizard <strong>moved</strong> his wand.,The absence of the rock <strong>enabled</strong> the farmer to reach the <strong>apple</strong>.,Tue Aug 30 2022 03:55:14 GMT-0700 (Pacific Daylight Time),1.66186E+12,3.583583333,slider_rating,4,no,yes,no,no,yes
301,21792,22,,Graduated College,1.66186E+12,female,english,images/DOWNHazard0DOWNHazard100.gif,The appearance of the rock <strong>stopped</strong> the farmer from reaching the <strong>apple</strong>.,The appearance of the rock <strong>got</strong> the farmer to reach the <strong>apple</strong>.,The appearance of the rock <strong>blocked</strong> the farmer from reaching the <strong>apple</strong>.,The wizard <strong>moved</strong> his wand.,The appearance of the rock <strong>enabled</strong> the farmer to reach the <strong>apple</strong>.,Tue Aug 30 2022 03:55:14 GMT-0700 (Pacific Daylight Time),1.66186E+12,3.583583333,slider_rating,5,no,no,no,yes,no
301,20835,22,,Graduated College,1.66186E+12,female,english,images/DOWNHazard100UPHazard0.gif,The disappearance of the rock <strong>stopped</strong> the farmer from reaching the <strong>apple</strong>.,The disappearance of the rock <strong>got</strong> the farmer to reach the <strong>apple</strong>.,The disappearance of the rock <strong>blocked</strong> the farmer from reaching the <strong>apple</strong>.,The wizard <strong>moved</strong> his wand.,The disappearance of the rock <strong>enabled</strong> the farmer to reach the <strong>apple</strong>.,Tue Aug 30 2022 03:55:14 GMT-0700 (Pacific Daylight Time),1.66186E+12,3.583583333,slider_rating,6,no,yes,no,yes,yes
301,19569,22,,Graduated College,1.66186E+12,female,english,images/DOWNHazard0DOWNHazard0.gif,The absence of the rock <strong>stopped</strong> the farmer from reaching the <strong>apple</strong>.,The absence of the rock <strong>got</strong> the farmer to reach the <strong>apple</strong>.,The absence of the rock <strong>blocked</strong> the farmer from reaching the <strong>apple</strong>.,The wizard <strong>moved</strong> his wand.,The absence of the rock <strong>enabled</strong> the farmer to reach the <strong>apple</strong>.,Tue Aug 30 2022 03:55:14 GMT-0700 (Pacific Daylight Time),1.66186E+12,3.583583333,slider_rating,7,no,no,no,no,no
303,48374,49,,Graduated College,1.66186E+12,Male,English,images/UPHazard0DOWNHazard100.gif,The appearance of the rock <strong>caused</strong> the farmer to reach the <strong>apple</strong>.,The wizard <strong>moved</strong> his wand.,The appearance of the rock <strong>got</strong> the farmer to reach the <strong>apple</strong>.,The appearance of the rock <strong>blocked</strong> the farmer from reaching the <strong>apple</strong>.,The appearance of the rock <strong>enabled</strong> the farmer to reach the <strong>apple</strong>.,Tue Aug 30 2022 05:57:27 GMT-0500 (Central Daylight Time),1.66186E+12,5.651783333,slider_rating,1,no,yes,no,yes,no
303,37949,49,,Graduated College,1.66186E+12,Male,English,images/DOWNHazard0DOWNHazard100.gif,The appearance of the rock <strong>caused</strong> the farmer to reach the <strong>apple</strong>.,The wizard <strong>moved</strong> his wand.,The appearance of the rock <strong>got</strong> the farmer to reach the <strong>apple</strong>.,The appearance of the rock <strong>blocked</strong> the farmer from reaching the <strong>apple</strong>.,The appearance of the rock <strong>enabled</strong> the farmer to reach the <strong>apple</strong>.,Tue Aug 30 2022 05:57:27 GMT-0500 (Central Daylight Time),1.66186E+12,5.651783333,slider_rating,2,no,yes,no,no,no
303,29176,49,,Graduated College,1.66186E+12,Male,English,images/DOWNHazard100UPHazard0.gif,The disappearance of the rock <strong>caused</strong> the farmer to reach the <strong>apple</strong>.,The wizard <strong>moved</strong> his wand.,The disappearance of the rock <strong>got</strong> the farmer to reach the <strong>apple</strong>.,The disappearance of the rock <strong>blocked</strong> the farmer from reaching the <strong>apple</strong>.,The disappearance of the rock <strong>enabled</strong> the farmer to reach the <strong>apple</strong>.,Tue Aug 30 2022 05:57:27 GMT-0500 (Central Daylight Time),1.66186E+12,5.651783333,slider_rating,3,yes,yes,yes,no,yes
303,38218,49,,Graduated College,1.66186E+12,Male,English,images/UPHazard0UPHazard0.gif,The absence of the rock <strong>caused</strong> the farmer to reach the <strong>apple</strong>.,The wizard <strong>moved</strong> his wand.,The absence of the rock <strong>got</strong> the farmer to reach the <strong>apple</strong>.,The absence of the rock <strong>blocked</strong> the farmer from reaching the <strong>apple</strong>.,The absence of the rock <strong>enabled</strong> the farmer to reach the <strong>apple</strong>.,Tue Aug 30 2022 05:57:27 GMT-0500 (Central Daylight Time),1.66186E+12,5.651783333,slider_rating,4,yes,no,yes,no,yes
303,35365,49,,Graduated College,1.66186E+12,Male,English,images/DOWNHazard100DOWNHazard100.gif,The presence of the rock <strong>caused</strong> the farmer to reach the <strong>apple</strong>.,The wizard <strong>moved</strong> his wand.,The presence of the rock <strong>got</strong> the farmer to reach the <strong>apple</strong>.,The presence of the rock <strong>blocked</strong> the farmer from reaching the <strong>apple</strong>.,The presence of the rock <strong>enabled</strong> the farmer to reach the <strong>apple</strong>.,Tue Aug 30 2022 05:57:27 GMT-0500 (Central Daylight Time),1.66186E+12,5.651783333,slider_rating,5,no,no,no,yes,no
303,40538,49,,Graduated College,1.66186E+12,Male,English,images/DOWNHazard100DOWNHazard0.gif,The disappearance of the rock <strong>caused</strong> the farmer to reach the <strong>apple</strong>.,The wizard <strong>moved</strong> his wand.,The disappearance of the rock <strong>got</strong> the farmer to reach the <strong>apple</strong>.,The disappearance of the rock <strong>blocked</strong> the farmer from reaching the <strong>apple</strong>.,The disappearance of the rock <strong>enabled</strong> the farmer to reach the <strong>apple</strong>.,Tue Aug 30 2022 05:57:27 GMT-0500 (Central Daylight Time),1.66186E+12,5.651783333,slider_rating,6,no,yes,no,no,yes
303,33489,49,,Graduated College,1.66186E+12,Male,English,images/DOWNHazard0DOWNHazard0.gif,The absence of the rock <strong>caused</strong> the farmer to reach the <strong>apple</strong>.,The wizard <strong>moved</strong> his wand.,The absence of the rock <strong>got</strong> the farmer to reach the <strong>apple</strong>.,The absence of the rock <strong>blocked</strong> the farmer from reaching the <strong>apple</strong>.,The absence of the rock <strong>enabled</strong> the farmer to reach the <strong>apple</strong>.,Tue Aug 30 2022 05:57:27 GMT-0500 (Central Daylight Time),1.66186E+12,5.651783333,slider_rating,7,no,no,no,no,yes
307,72229,34,N/A,Graduated College,1.66186E+12,Female,English,images/UPHazard0DOWNHazard100.gif,The appearance of the rock <strong>let</strong> the farmer reach the <strong>apple</strong>.,The appearance of the rock <strong>allowed</strong> the farmer to reach the <strong>apple</strong>.,The appearance of the rock <strong>stopped</strong> the farmer from reaching the <strong>apple</strong>.,The appearance of the rock <strong>blocked</strong> the farmer from reaching the <strong>apple</strong>.,The wizard <strong>moved</strong> his wand.,Tue Aug 30 2022 04:03:23 GMT-0700 (Pacific Daylight Time),1.66186E+12,6.793933333,slider_rating,1,no,no,yes,yes,yes
307,36297,34,N/A,Graduated College,1.66186E+12,Female,English,images/DOWNHazard100UPHazard0.gif,The disappearance of the rock <strong>let</strong> the farmer reach the <strong>apple</strong>.,The disappearance of the rock <strong>allowed</strong> the farmer to reach the <strong>apple</strong>.,The disappearance of the rock <strong>stopped</strong> the farmer from reaching the <strong>apple</strong>.,The disappearance of the rock <strong>blocked</strong> the farmer from reaching the <strong>apple</strong>.,The wizard <strong>moved</strong> his wand.,Tue Aug 30 2022 04:03:23 GMT-0700 (Pacific Daylight Time),1.66186E+12,6.793933333,slider_rating,2,yes,yes,no,no,yes
307,57209,34,N/A,Graduated College,1.66186E+12,Female,English,images/DOWNHazard0DOWNHazard100.gif,The appearance of the rock <strong>let</strong> the farmer reach the <strong>apple</strong>.,The appearance of the rock <strong>allowed</strong> the farmer to reach the <strong>apple</strong>.,The appearance of the rock <strong>stopped</strong> the farmer from reaching the <strong>apple</strong>.,The appearance of the rock <strong>blocked</strong> the farmer from reaching the <strong>apple</strong>.,The wizard <strong>moved</strong> his wand.,Tue Aug 30 2022 04:03:23 GMT-0700 (Pacific Daylight Time),1.66186E+12,6.793933333,slider_rating,3,no,no,no,no,yes
307,28962,34,N/A,Graduated College,1.66186E+12,Female,English,images/UPHazard0UPHazard0.gif,The absence of the rock <strong>let</strong> the farmer reach the <strong>apple</strong>.,The absence of the rock <strong>allowed</strong> the farmer to reach the <strong>apple</strong>.,The absence of the rock <strong>stopped</strong> the farmer from reaching the <strong>apple</strong>.,The absence of the rock <strong>blocked</strong> the farmer from reaching the <strong>apple</strong>.,The wizard <strong>moved</strong> his wand.,Tue Aug 30 2022 04:03:23 GMT-0700 (Pacific Daylight Time),1.66186E+12,6.793933333,slider_rating,4,yes,yes,no,no,no
307,35685,34,N/A,Graduated College,1.66186E+12,Female,English,images/DOWNHazard100DOWNHazard100.gif,The presence of the rock <strong>let</strong> the farmer reach the <strong>apple</strong>.,The presence of the rock <strong>allowed</strong> the farmer to reach the <strong>apple</strong>.,The presence of the rock <strong>stopped</strong> the farmer from reaching the <strong>apple</strong>.,The presence of the rock <strong>blocked</strong> the farmer from reaching the <strong>apple</strong>.,The wizard <strong>moved</strong> his wand.,Tue Aug 30 2022 04:03:23 GMT-0700 (Pacific Daylight Time),1.66186E+12,6.793933333,slider_rating,5,no,no,no,no,no
307,27579,34,N/A,Graduated College,1.66186E+12,Female,English,images/DOWNHazard100DOWNHazard0.gif,The disappearance of the rock <strong>let</strong> the farmer reach the <strong>apple</strong>.,The disappearance of the rock <strong>allowed</strong> the farmer to reach the <strong>apple</strong>.,The disappearance of the rock <strong>stopped</strong> the farmer from reaching the <strong>apple</strong>.,The disappearance of the rock <strong>blocked</strong> the farmer from reaching the <strong>apple</strong>.,The wizard <strong>moved</strong> his wand.,Tue Aug 30 2022 04:03:23 GMT-0700 (Pacific Daylight Time),1.66186E+12,6.793933333,slider_rating,6,no,no,no,no,yes
307,40217,34,N/A,Graduated College,1.66186E+12,Female,English,images/DOWNHazard0DOWNHazard0.gif,The absence of the rock <strong>let</strong> the farmer reach the <strong>apple</strong>.,The absence of the rock <strong>allowed</strong> the farmer to reach the <strong>apple</strong>.,The absence of the rock <strong>stopped</strong> the farmer from reaching the <strong>apple</strong>.,The absence of the rock <strong>blocked</strong> the farmer from reaching the <strong>apple</strong>.,The wizard <strong>moved</strong> his wand.,Tue Aug 30 2022 04:03:23 GMT-0700 (Pacific Daylight Time),1.66186E+12,6.793933333,slider_rating,7,no,no,no,no,no
308,49336,46,none,Graduated College,1.66186E+12,male,English,images/UPHazard0DOWNHazard100.gif,The appearance of the rock <strong>stopped</strong> the farmer from reaching the <strong>apple</strong>.,The appearance of the rock <strong>prevented</strong> the farmer from reaching the <strong>apple</strong>.,The wizard <strong>moved</strong> his wand.,The appearance of the rock <strong>blocked</strong> the farmer from reaching the <strong>apple</strong>.,The appearance of the rock <strong>caused</strong> the farmer to reach the <strong>apple</strong>.,Tue Aug 30 2022 06:05:30 GMT-0500 (Central Daylight Time),1.66186E+12,5.474833333,slider_rating,1,yes,yes,yes,yes,no
308,31270,46,none,Graduated College,1.66186E+12,male,English,images/UPHazard0UPHazard0.gif,The absence of the rock <strong>stopped</strong> the farmer from reaching the <strong>apple</strong>.,The absence of the rock <strong>prevented</strong> the farmer from reaching the <strong>apple</strong>.,The wizard <strong>moved</strong> his wand.,The absence of the rock <strong>blocked</strong> the farmer from reaching the <strong>apple</strong>.,The absence of the rock <strong>caused</strong> the farmer to reach the <strong>apple</strong>.,Tue Aug 30 2022 06:05:30 GMT-0500 (Central Daylight Time),1.66186E+12,5.474833333,slider_rating,2,no,no,no,no,yes
308,21894,46,none,Graduated College,1.66186E+12,male,English,images/DOWNHazard0DOWNHazard0.gif,The absence of the rock <strong>stopped</strong> the farmer from reaching the <strong>apple</strong>.,The absence of the rock <strong>prevented</strong> the farmer from reaching the <strong>apple</strong>.,The wizard <strong>moved</strong> his wand.,The absence of the rock <strong>blocked</strong> the farmer from reaching the <strong>apple</strong>.,The absence of the rock <strong>caused</strong> the farmer to reach the <strong>apple</strong>.,Tue Aug 30 2022 06:05:30 GMT-0500 (Central Daylight Time),1.66186E+12,5.474833333,slider_rating,3,no,no,no,no,no
308,34110,46,none,Graduated College,1.66186E+12,male,English,images/DOWNHazard100UPHazard0.gif,The disappearance of the rock <strong>stopped</strong> the farmer from reaching the <strong>apple</strong>.,The disappearance of the rock <strong>prevented</strong> the farmer from reaching the <strong>apple</strong>.,The wizard <strong>moved</strong> his wand.,The disappearance of the rock <strong>blocked</strong> the farmer from reaching the <strong>apple</strong>.,The disappearance of the rock <strong>caused</strong> the farmer to reach the <strong>apple</strong>.,Tue Aug 30 2022 06:05:30 GMT-0500 (Central Daylight Time),1.66186E+12,5.474833333,slider_rating,4,no,no,yes,no,yes
308,29366,46,none,Graduated College,1.66186E+12,male,English,images/DOWNHazard0DOWNHazard100.gif,The appearance of the rock <strong>stopped</strong> the farmer from reaching the <strong>apple</strong>.,The appearance of the rock <strong>prevented</strong> the farmer from reaching the <strong>apple</strong>.,The wizard <strong>moved</strong> his wand.,The appearance of the rock <strong>blocked</strong> the farmer from reaching the <strong>apple</strong>.,The appearance of the rock <strong>caused</strong> the farmer to reach the <strong>apple</strong>.,Tue Aug 30 2022 06:05:30 GMT-0500 (Central Daylight Time),1.66186E+12,5.474833333,slider_rating,5,yes,yes,yes,yes,no
308,30109,46,none,Graduated College,1.66186E+12,male,English,images/DOWNHazard100DOWNHazard0.gif,The disappearance of the rock <strong>stopped</strong> the farmer from reaching the <strong>apple</strong>.,The disappearance of the rock <strong>prevented</strong> the farmer from reaching the <strong>apple</strong>.,The wizard <strong>moved</strong> his wand.,The disappearance of the rock <strong>blocked</strong> the farmer from reaching the <strong>apple</strong>.,The disappearance of the rock <strong>caused</strong> the farmer to reach the <strong>apple</strong>.,Tue Aug 30 2022 06:05:30 GMT-0500 (Central Daylight Time),1.66186E+12,5.474833333,slider_rating,6,no,no,yes,no,no
308,29054,46,none,Graduated College,1.66186E+12,male,English,images/DOWNHazard100DOWNHazard100.gif,The presence of the rock <strong>stopped</strong> the farmer from reaching the <strong>apple</strong>.,The presence of the rock <strong>prevented</strong> the farmer from reaching the <strong>apple</strong>.,The wizard <strong>moved</strong> his wand.,The presence of the rock <strong>blocked</strong> the farmer from reaching the <strong>apple</strong>.,The presence of the rock <strong>caused</strong> the farmer to reach the <strong>apple</strong>.,Tue Aug 30 2022 06:05:30 GMT-0500 (Central Daylight Time),1.66186E+12,5.474833333,slider_rating,7,no,no,no,yes,no
310,37701,27,Had no issues. Thanks!,Graduated High School,1.66186E+12,Male,English,images/UPHazard0DOWNHazard100.gif,The appearance of the rock <strong>stopped</strong> the farmer from reaching the <strong>apple</strong>.,The wizard <strong>moved</strong> his wand.,The appearance of the rock <strong>blocked</strong> the farmer from reaching the <strong>apple</strong>.,The appearance of the rock <strong>got</strong> the farmer to reach the <strong>apple</strong>.,The appearance of the rock <strong>allowed</strong> the farmer to reach the <strong>apple</strong>.,Tue Aug 30 2022 07:07:30 GMT-0400 (Eastern Daylight Time),1.66186E+12,5.247233333,slider_rating,1,yes,yes,yes,no,no
310,40287,27,Had no issues. Thanks!,Graduated High School,1.66186E+12,Male,English,images/DOWNHazard100DOWNHazard0.gif,The disappearance of the rock <strong>stopped</strong> the farmer from reaching the <strong>apple</strong>.,The wizard <strong>moved</strong> his wand.,The disappearance of the rock <strong>blocked</strong> the farmer from reaching the <strong>apple</strong>.,The disappearance of the rock <strong>got</strong> the farmer to reach the <strong>apple</strong>.,The disappearance of the rock <strong>allowed</strong> the farmer to reach the <strong>apple</strong>.,Tue Aug 30 2022 07:07:30 GMT-0400 (Eastern Daylight Time),1.66186E+12,5.247233333,slider_rating,2,no,yes,no,no,yes
310,29137,27,Had no issues. Thanks!,Graduated High School,1.66186E+12,Male,English,images/DOWNHazard0DOWNHazard0.gif,The absence of the rock <strong>stopped</strong> the farmer from reaching the <strong>apple</strong>.,The wizard <strong>moved</strong> his wand.,The absence of the rock <strong>blocked</strong> the farmer from reaching the <strong>apple</strong>.,The absence of the rock <strong>got</strong> the farmer to reach the <strong>apple</strong>.,The absence of the rock <strong>allowed</strong> the farmer to reach the <strong>apple</strong>.,Tue Aug 30 2022 07:07:30 GMT-0400 (Eastern Daylight Time),1.66186E+12,5.247233333,slider_rating,3,no,no,no,no,yes
310,40997,27,Had no issues. Thanks!,Graduated High School,1.66186E+12,Male,English,images/DOWNHazard100UPHazard0.gif,The disappearance of the rock <strong>stopped</strong> the farmer from reaching the <strong>apple</strong>.,The wizard <strong>moved</strong> his wand.,The disappearance of the rock <strong>blocked</strong> the farmer from reaching the <strong>apple</strong>.,The disappearance of the rock <strong>got</strong> the farmer to reach the <strong>apple</strong>.,The disappearance of the rock <strong>allowed</strong> the farmer to reach the <strong>apple</strong>.,Tue Aug 30 2022 07:07:30 GMT-0400 (Eastern Daylight Time),1.66186E+12,5.247233333,slider_rating,4,no,yes,no,yes,yes
310,31693,27,Had no issues. Thanks!,Graduated High School,1.66186E+12,Male,English,images/DOWNHazard100DOWNHazard100.gif,The presence of the rock <strong>stopped</strong> the farmer from reaching the <strong>apple</strong>.,The wizard <strong>moved</strong> his wand.,The presence of the rock <strong>blocked</strong> the farmer from reaching the <strong>apple</strong>.,The presence of the rock <strong>got</strong> the farmer to reach the <strong>apple</strong>.,The presence of the rock <strong>allowed</strong> the farmer to reach the <strong>apple</strong>.,Tue Aug 30 2022 07:07:30 GMT-0400 (Eastern Daylight Time),1.66186E+12,5.247233333,slider_rating,5,yes,no,yes,no,no
310,20446,27,Had no issues. Thanks!,Graduated High School,1.66186E+12,Male,English,images/UPHazard0UPHazard0.gif,The absence of the rock <strong>stopped</strong> the farmer from reaching the <strong>apple</strong>.,The wizard <strong>moved</strong> his wand.,The absence of the rock <strong>blocked</strong> the farmer from reaching the <strong>apple</strong>.,The absence of the rock <strong>got</strong> the farmer to reach the <strong>apple</strong>.,The absence of the rock <strong>allowed</strong> the farmer to reach the <strong>apple</strong>.,Tue Aug 30 2022 07:07:30 GMT-0400 (Eastern Daylight Time),1.66186E+12,5.247233333,slider_rating,6,no,no,no,yes,yes
310,36555,27,Had no issues. Thanks!,Graduated High School,1.66186E+12,Male,English,images/DOWNHazard0DOWNHazard100.gif,The appearance of the rock <strong>stopped</strong> the farmer from reaching the <strong>apple</strong>.,The wizard <strong>moved</strong> his wand.,The appearance of the rock <strong>blocked</strong> the farmer from reaching the <strong>apple</strong>.,The appearance of the rock <strong>got</strong> the farmer to reach the <strong>apple</strong>.,The appearance of the rock <strong>allowed</strong> the farmer to reach the <strong>apple</strong>.,Tue Aug 30 2022 07:07:30 GMT-0400 (Eastern Daylight Time),1.66186E+12,5.247233333,slider_rating,7,no,yes,yes,no,no
304,42774,23,The study was effective with no issues.,Graduated High School,1.66186E+12,female,English,images/UPHazard0DOWNHazard100.gif,The appearance of the rock <strong>caused</strong> the farmer to reach the <strong>apple</strong>.,The appearance of the rock <strong>enabled</strong> the farmer to reach the <strong>apple</strong>.,The appearance of the rock <strong>made</strong> the farmer reach the <strong>apple</strong>.,The appearance of the rock <strong>blocked</strong> the farmer from reaching the <strong>apple</strong>.,The wizard <strong>moved</strong> his wand.,Tue Aug 30 2022 06:01:37 GMT-0500 (Central Daylight Time),1.66186E+12,5.11425,slider_rating,1,no,no,no,yes,yes
304,50737,23,The study was effective with no issues.,Graduated High School,1.66186E+12,female,English,images/DOWNHazard100DOWNHazard0.gif,The disappearance of the rock <strong>caused</strong> the farmer to reach the <strong>apple</strong>.,The disappearance of the rock <strong>enabled</strong> the farmer to reach the <strong>apple</strong>.,The disappearance of the rock <strong>made</strong> the farmer reach the <strong>apple</strong>.,The disappearance of the rock <strong>blocked</strong> the farmer from reaching the <strong>apple</strong>.,The wizard <strong>moved</strong> his wand.,Tue Aug 30 2022 06:01:37 GMT-0500 (Central Daylight Time),1.66186E+12,5.11425,slider_rating,2,no,no,no,no,yes
304,36075,23,The study was effective with no issues.,Graduated High School,1.66186E+12,female,English,images/DOWNHazard0DOWNHazard0.gif,The absence of the rock <strong>caused</strong> the farmer to reach the <strong>apple</strong>.,The absence of the rock <strong>enabled</strong> the farmer to reach the <strong>apple</strong>.,The absence of the rock <strong>made</strong> the farmer reach the <strong>apple</strong>.,The absence of the rock <strong>blocked</strong> the farmer from reaching the <strong>apple</strong>.,The wizard <strong>moved</strong> his wand.,Tue Aug 30 2022 06:01:37 GMT-0500 (Central Daylight Time),1.66186E+12,5.11425,slider_rating,3,no,yes,no,no,no
304,23910,23,The study was effective with no issues.,Graduated High School,1.66186E+12,female,English,images/UPHazard0UPHazard0.gif,The absence of the rock <strong>caused</strong> the farmer to reach the <strong>apple</strong>.,The absence of the rock <strong>enabled</strong> the farmer to reach the <strong>apple</strong>.,The absence of the rock <strong>made</strong> the farmer reach the <strong>apple</strong>.,The absence of the rock <strong>blocked</strong> the farmer from reaching the <strong>apple</strong>.,The wizard <strong>moved</strong> his wand.,Tue Aug 30 2022 06:01:37 GMT-0500 (Central Daylight Time),1.66186E+12,5.11425,slider_rating,4,yes,yes,yes,no,no
304,28643,23,The study was effective with no issues.,Graduated High School,1.66186E+12,female,English,images/DOWNHazard100UPHazard0.gif,The disappearance of the rock <strong>caused</strong> the farmer to reach the <strong>apple</strong>.,The disappearance of the rock <strong>enabled</strong> the farmer to reach the <strong>apple</strong>.,The disappearance of the rock <strong>made</strong> the farmer reach the <strong>apple</strong>.,The disappearance of the rock <strong>blocked</strong> the farmer from reaching the <strong>apple</strong>.,The wizard <strong>moved</strong> his wand.,Tue Aug 30 2022 06:01:37 GMT-0500 (Central Daylight Time),1.66186E+12,5.11425,slider_rating,5,yes,yes,yes,no,yes
304,28978,23,The study was effective with no issues.,Graduated High School,1.66186E+12,female,English,images/DOWNHazard0DOWNHazard100.gif,The appearance of the rock <strong>caused</strong> the farmer to reach the <strong>apple</strong>.,The appearance of the rock <strong>enabled</strong> the farmer to reach the <strong>apple</strong>.,The appearance of the rock <strong>made</strong> the farmer reach the <strong>apple</strong>.,The appearance of the rock <strong>blocked</strong> the farmer from reaching the <strong>apple</strong>.,The wizard <strong>moved</strong> his wand.,Tue Aug 30 2022 06:01:37 GMT-0500 (Central Daylight Time),1.66186E+12,5.11425,slider_rating,6,no,no,no,yes,yes
304,25044,23,The study was effective with no issues.,Graduated High School,1.66186E+12,female,English,images/DOWNHazard100DOWNHazard100.gif,The presence of the rock <strong>caused</strong> the farmer to reach the <strong>apple</strong>.,The presence of the rock <strong>enabled</strong> the farmer to reach the <strong>apple</strong>.,The presence of the rock <strong>made</strong> the farmer reach the <strong>apple</strong>.,The presence of the rock <strong>blocked</strong> the farmer from reaching the <strong>apple</strong>.,The wizard <strong>moved</strong> his wand.,Tue Aug 30 2022 06:01:37 GMT-0500 (Central Daylight Time),1.66186E+12,5.11425,slider_rating,7,no,no,no,yes,no
336,25065,40,none,Graduated College,1.66186E+12,male,english,images/UPHazard0DOWNHazard100.gif,The appearance of the rock <strong>allowed</strong> the farmer to reach the <strong>apple</strong>.,The appearance of the rock <strong>prevented</strong> the farmer from reaching the <strong>apple</strong>.,The wizard <strong>moved</strong> his wand.,The appearance of the rock <strong>enabled</strong> the farmer to reach the <strong>apple</strong>.,The appearance of the rock <strong>made</strong> the farmer reach the <strong>apple</strong>.,Tue Aug 30 2022 07:21:51 GMT-0400 (Eastern Daylight Time),1.66186E+12,3.658233333,slider_rating,1,no,yes,yes,no,no
336,12905,40,none,Graduated College,1.66186E+12,male,english,images/DOWNHazard100UPHazard0.gif,The disappearance of the rock <strong>allowed</strong> the farmer to reach the <strong>apple</strong>.,The disappearance of the rock <strong>prevented</strong> the farmer from reaching the <strong>apple</strong>.,The wizard <strong>moved</strong> his wand.,The disappearance of the rock <strong>enabled</strong> the farmer to reach the <strong>apple</strong>.,The disappearance of the rock <strong>made</strong> the farmer reach the <strong>apple</strong>.,Tue Aug 30 2022 07:21:51 GMT-0400 (Eastern Daylight Time),1.66186E+12,3.658233333,slider_rating,2,yes,no,yes,yes,yes
336,69433,40,none,Graduated College,1.66186E+12,male,english,images/DOWNHazard0DOWNHazard0.gif,The absence of the rock <strong>allowed</strong> the farmer to reach the <strong>apple</strong>.,The absence of the rock <strong>prevented</strong> the farmer from reaching the <strong>apple</strong>.,The wizard <strong>moved</strong> his wand.,The absence of the rock <strong>enabled</strong> the farmer to reach the <strong>apple</strong>.,The absence of the rock <strong>made</strong> the farmer reach the <strong>apple</strong>.,Tue Aug 30 2022 07:21:51 GMT-0400 (Eastern Daylight Time),1.66186E+12,3.658233333,slider_rating,3,no,no,no,no,no
336,12497,40,none,Graduated College,1.66186E+12,male,english,images/UPHazard0UPHazard0.gif,The absence of the rock <strong>allowed</strong> the farmer to reach the <strong>apple</strong>.,The absence of the rock <strong>prevented</strong> the farmer from reaching the <strong>apple</strong>.,The wizard <strong>moved</strong> his wand.,The absence of the rock <strong>enabled</strong> the farmer to reach the <strong>apple</strong>.,The absence of the rock <strong>made</strong> the farmer reach the <strong>apple</strong>.,Tue Aug 30 2022 07:21:51 GMT-0400 (Eastern Daylight Time),1.66186E+12,3.658233333,slider_rating,4,yes,no,no,yes,yes
336,11105,40,none,Graduated College,1.66186E+12,male,english,images/DOWNHazard100DOWNHazard100.gif,The presence of the rock <strong>allowed</strong> the farmer to reach the <strong>apple</strong>.,The presence of the rock <strong>prevented</strong> the farmer from reaching the <strong>apple</strong>.,The wizard <strong>moved</strong> his wand.,The presence of the rock <strong>enabled</strong> the farmer to reach the <strong>apple</strong>.,The presence of the rock <strong>made</strong> the farmer reach the <strong>apple</strong>.,Tue Aug 30 2022 07:21:51 GMT-0400 (Eastern Daylight Time),1.66186E+12,3.658233333,slider_rating,5,no,yes,no,no,no
336,18292,40,none,Graduated College,1.66186E+12,male,english,images/DOWNHazard0DOWNHazard100.gif,The appearance of the rock <strong>allowed</strong> the farmer to reach the <strong>apple</strong>.,The appearance of the rock <strong>prevented</strong> the farmer from reaching the <strong>apple</strong>.,The wizard <strong>moved</strong> his wand.,The appearance of the rock <strong>enabled</strong> the farmer to reach the <strong>apple</strong>.,The appearance of the rock <strong>made</strong> the farmer reach the <strong>apple</strong>.,Tue Aug 30 2022 07:21:51 GMT-0400 (Eastern Daylight Time),1.66186E+12,3.658233333,slider_rating,6,no,yes,yes,no,no
336,23004,40,none,Graduated College,1.66186E+12,male,english,images/DOWNHazard100DOWNHazard0.gif,The disappearance of the rock <strong>allowed</strong> the farmer to reach the <strong>apple</strong>.,The disappearance of the rock <strong>prevented</strong> the farmer from reaching the <strong>apple</strong>.,The wizard <strong>moved</strong> his wand.,The disappearance of the rock <strong>enabled</strong> the farmer to reach the <strong>apple</strong>.,The disappearance of the rock <strong>made</strong> the farmer reach the <strong>apple</strong>.,Tue Aug 30 2022 07:21:51 GMT-0400 (Eastern Daylight Time),1.66186E+12,3.658233333,slider_rating,7,no,no,yes,no,no
305,50681,47,,Higher Degree,1.66186E+12,Female,English,images/UPHazard0DOWNHazard100.gif,The appearance of the rock <strong>caused</strong> the farmer to reach the <strong>apple</strong>.,The appearance of the rock <strong>enabled</strong> the farmer to reach the <strong>apple</strong>.,The wizard <strong>moved</strong> his wand.,The appearance of the rock <strong>allowed</strong> the farmer to reach the <strong>apple</strong>.,The appearance of the rock <strong>let</strong> the farmer reach the <strong>apple</strong>.,Tue Aug 30 2022 07:03:31 GMT-0400 (Eastern Daylight Time),1.66186E+12,4.654883333,slider_rating,1,no,no,yes,no,no
305,35680,47,,Higher Degree,1.66186E+12,Female,English,images/DOWNHazard100DOWNHazard0.gif,The disappearance of the rock <strong>caused</strong> the farmer to reach the <strong>apple</strong>.,The disappearance of the rock <strong>enabled</strong> the farmer to reach the <strong>apple</strong>.,The wizard <strong>moved</strong> his wand.,The disappearance of the rock <strong>allowed</strong> the farmer to reach the <strong>apple</strong>.,The disappearance of the rock <strong>let</strong> the farmer reach the <strong>apple</strong>.,Tue Aug 30 2022 07:03:31 GMT-0400 (Eastern Daylight Time),1.66186E+12,4.654883333,slider_rating,2,no,yes,yes,yes,yes
305,27833,47,,Higher Degree,1.66186E+12,Female,English,images/DOWNHazard100DOWNHazard100.gif,The presence of the rock <strong>caused</strong> the farmer to reach the <strong>apple</strong>.,The presence of the rock <strong>enabled</strong> the farmer to reach the <strong>apple</strong>.,The wizard <strong>moved</strong> his wand.,The presence of the rock <strong>allowed</strong> the farmer to reach the <strong>apple</strong>.,The presence of the rock <strong>let</strong> the farmer reach the <strong>apple</strong>.,Tue Aug 30 2022 07:03:31 GMT-0400 (Eastern Daylight Time),1.66186E+12,4.654883333,slider_rating,3,no,no,no,no,no
305,20887,47,,Higher Degree,1.66186E+12,Female,English,images/DOWNHazard0DOWNHazard0.gif,The absence of the rock <strong>caused</strong> the farmer to reach the <strong>apple</strong>.,The absence of the rock <strong>enabled</strong> the farmer to reach the <strong>apple</strong>.,The wizard <strong>moved</strong> his wand.,The absence of the rock <strong>allowed</strong> the farmer to reach the <strong>apple</strong>.,The absence of the rock <strong>let</strong> the farmer reach the <strong>apple</strong>.,Tue Aug 30 2022 07:03:31 GMT-0400 (Eastern Daylight Time),1.66186E+12,4.654883333,slider_rating,4,no,yes,no,yes,yes
305,22703,47,,Higher Degree,1.66186E+12,Female,English,images/DOWNHazard100UPHazard0.gif,The disappearance of the rock <strong>caused</strong> the farmer to reach the <strong>apple</strong>.,The disappearance of the rock <strong>enabled</strong> the farmer to reach the <strong>apple</strong>.,The wizard <strong>moved</strong> his wand.,The disappearance of the rock <strong>allowed</strong> the farmer to reach the <strong>apple</strong>.,The disappearance of the rock <strong>let</strong> the farmer reach the <strong>apple</strong>.,Tue Aug 30 2022 07:03:31 GMT-0400 (Eastern Daylight Time),1.66186E+12,4.654883333,slider_rating,5,yes,yes,yes,yes,yes
305,20811,47,,Higher Degree,1.66186E+12,Female,English,images/DOWNHazard0DOWNHazard100.gif,The appearance of the rock <strong>caused</strong> the farmer to reach the <strong>apple</strong>.,The appearance of the rock <strong>enabled</strong> the farmer to reach the <strong>apple</strong>.,The wizard <strong>moved</strong> his wand.,The appearance of the rock <strong>allowed</strong> the farmer to reach the <strong>apple</strong>.,The appearance of the rock <strong>let</strong> the farmer reach the <strong>apple</strong>.,Tue Aug 30 2022 07:03:31 GMT-0400 (Eastern Daylight Time),1.66186E+12,4.654883333,slider_rating,6,no,no,yes,no,no
305,35241,47,,Higher Degree,1.66186E+12,Female,English,images/UPHazard0UPHazard0.gif,The absence of the rock <strong>caused</strong> the farmer to reach the <strong>apple</strong>.,The absence of the rock <strong>enabled</strong> the farmer to reach the <strong>apple</strong>.,The wizard <strong>moved</strong> his wand.,The absence of the rock <strong>allowed</strong> the farmer to reach the <strong>apple</strong>.,The absence of the rock <strong>let</strong> the farmer reach the <strong>apple</strong>.,Tue Aug 30 2022 07:03:31 GMT-0400 (Eastern Daylight Time),1.66186E+12,4.654883333,slider_rating,7,yes,yes,no,yes,yes
306,73773,30,,Higher Degree,1.66186E+12,Female,English,images/UPHazard0DOWNHazard100.gif,The appearance of the rock <strong>got</strong> the farmer to reach the <strong>apple</strong>.,The appearance of the rock <strong>caused</strong> the farmer to reach the <strong>apple</strong>.,The wizard <strong>moved</strong> his wand.,The appearance of the rock <strong>prevented</strong> the farmer from reaching the <strong>apple</strong>.,The appearance of the rock <strong>made</strong> the farmer reach the <strong>apple</strong>.,Tue Aug 30 2022 06:53:20 GMT-0400 (Eastern Daylight Time),1.66186E+12,14.9179,slider_rating,1,no,no,yes,yes,no
306,26448,30,,Higher Degree,1.66186E+12,Female,English,images/DOWNHazard100DOWNHazard100.gif,The presence of the rock <strong>got</strong> the farmer to reach the <strong>apple</strong>.,The presence of the rock <strong>caused</strong> the farmer to reach the <strong>apple</strong>.,The wizard <strong>moved</strong> his wand.,The presence of the rock <strong>prevented</strong> the farmer from reaching the <strong>apple</strong>.,The presence of the rock <strong>made</strong> the farmer reach the <strong>apple</strong>.,Tue Aug 30 2022 06:53:20 GMT-0400 (Eastern Daylight Time),1.66186E+12,14.9179,slider_rating,2,no,no,no,yes,no
306,38183,30,,Higher Degree,1.66186E+12,Female,English,images/DOWNHazard0DOWNHazard100.gif,The appearance of the rock <strong>got</strong> the farmer to reach the <strong>apple</strong>.,The appearance of the rock <strong>caused</strong> the farmer to reach the <strong>apple</strong>.,The wizard <strong>moved</strong> his wand.,The appearance of the rock <strong>prevented</strong> the farmer from reaching the <strong>apple</strong>.,The appearance of the rock <strong>made</strong> the farmer reach the <strong>apple</strong>.,Tue Aug 30 2022 06:53:20 GMT-0400 (Eastern Daylight Time),1.66186E+12,14.9179,slider_rating,3,no,no,yes,yes,no
306,57459,30,,Higher Degree,1.66186E+12,Female,English,images/DOWNHazard0DOWNHazard0.gif,The absence of the rock <strong>got</strong> the farmer to reach the <strong>apple</strong>.,The absence of the rock <strong>caused</strong> the farmer to reach the <strong>apple</strong>.,The wizard <strong>moved</strong> his wand.,The absence of the rock <strong>prevented</strong> the farmer from reaching the <strong>apple</strong>.,The absence of the rock <strong>made</strong> the farmer reach the <strong>apple</strong>.,Tue Aug 30 2022 06:53:20 GMT-0400 (Eastern Daylight Time),1.66186E+12,14.9179,slider_rating,4,no,no,no,yes,no
306,154174,30,,Higher Degree,1.66186E+12,Female,English,images/DOWNHazard100DOWNHazard0.gif,The disappearance of the rock <strong>got</strong> the farmer to reach the <strong>apple</strong>.,The disappearance of the rock <strong>caused</strong> the farmer to reach the <strong>apple</strong>.,The wizard <strong>moved</strong> his wand.,The disappearance of the rock <strong>prevented</strong> the farmer from reaching the <strong>apple</strong>.,The disappearance of the rock <strong>made</strong> the farmer reach the <strong>apple</strong>.,Tue Aug 30 2022 06:53:20 GMT-0400 (Eastern Daylight Time),1.66186E+12,14.9179,slider_rating,5,no,no,yes,no,no
306,211277,30,,Higher Degree,1.66186E+12,Female,English,images/DOWNHazard100UPHazard0.gif,The disappearance of the rock <strong>got</strong> the farmer to reach the <strong>apple</strong>.,The disappearance of the rock <strong>caused</strong> the farmer to reach the <strong>apple</strong>.,The wizard <strong>moved</strong> his wand.,The disappearance of the rock <strong>prevented</strong> the farmer from reaching the <strong>apple</strong>.,The disappearance of the rock <strong>made</strong> the farmer reach the <strong>apple</strong>.,Tue Aug 30 2022 06:53:20 GMT-0400 (Eastern Daylight Time),1.66186E+12,14.9179,slider_rating,6,yes,yes,yes,no,yes
306,156394,30,,Higher Degree,1.66186E+12,Female,English,images/UPHazard0UPHazard0.gif,The absence of the rock <strong>got</strong> the farmer to reach the <strong>apple</strong>.,The absence of the rock <strong>caused</strong> the farmer to reach the <strong>apple</strong>.,The wizard <strong>moved</strong> his wand.,The absence of the rock <strong>prevented</strong> the farmer from reaching the <strong>apple</strong>.,The absence of the rock <strong>made</strong> the farmer reach the <strong>apple</strong>.,Tue Aug 30 2022 06:53:20 GMT-0400 (Eastern Daylight Time),1.66186E+12,14.9179,slider_rating,7,yes,yes,no,no,yes
309,70644,44,No,Graduated College,1.66186E+12,Female,English,images/UPHazard0DOWNHazard100.gif,The appearance of the rock <strong>allowed</strong> the farmer to reach the <strong>apple</strong>.,The wizard <strong>moved</strong> his wand.,The appearance of the rock <strong>let</strong> the farmer reach the <strong>apple</strong>.,The appearance of the rock <strong>caused</strong> the farmer to reach the <strong>apple</strong>.,The appearance of the rock <strong>blocked</strong> the farmer from reaching the <strong>apple</strong>.,Tue Aug 30 2022 04:01:24 GMT-0700 (Pacific Daylight Time),1.66186E+12,9.677483333,slider_rating,1,no,yes,no,no,yes
309,25450,44,No,Graduated College,1.66186E+12,Female,English,images/UPHazard0UPHazard0.gif,The absence of the rock <strong>allowed</strong> the farmer to reach the <strong>apple</strong>.,The wizard <strong>moved</strong> his wand.,The absence of the rock <strong>let</strong> the farmer reach the <strong>apple</strong>.,The absence of the rock <strong>caused</strong> the farmer to reach the <strong>apple</strong>.,The absence of the rock <strong>blocked</strong> the farmer from reaching the <strong>apple</strong>.,Tue Aug 30 2022 04:01:24 GMT-0700 (Pacific Daylight Time),1.66186E+12,9.677483333,slider_rating,2,yes,no,yes,yes,no
309,69548,44,No,Graduated College,1.66186E+12,Female,English,images/DOWNHazard100UPHazard0.gif,The disappearance of the rock <strong>allowed</strong> the farmer to reach the <strong>apple</strong>.,The wizard <strong>moved</strong> his wand.,The disappearance of the rock <strong>let</strong> the farmer reach the <strong>apple</strong>.,The disappearance of the rock <strong>caused</strong> the farmer to reach the <strong>apple</strong>.,The disappearance of the rock <strong>blocked</strong> the farmer from reaching the <strong>apple</strong>.,Tue Aug 30 2022 04:01:24 GMT-0700 (Pacific Daylight Time),1.66186E+12,9.677483333,slider_rating,3,yes,yes,yes,yes,no
309,110492,44,No,Graduated College,1.66186E+12,Female,English,images/DOWNHazard100DOWNHazard0.gif,The disappearance of the rock <strong>allowed</strong> the farmer to reach the <strong>apple</strong>.,The wizard <strong>moved</strong> his wand.,The disappearance of the rock <strong>let</strong> the farmer reach the <strong>apple</strong>.,The disappearance of the rock <strong>caused</strong> the farmer to reach the <strong>apple</strong>.,The disappearance of the rock <strong>blocked</strong> the farmer from reaching the <strong>apple</strong>.,Tue Aug 30 2022 04:01:24 GMT-0700 (Pacific Daylight Time),1.66186E+12,9.677483333,slider_rating,4,no,yes,no,no,no
309,72528,44,No,Graduated College,1.66186E+12,Female,English,images/DOWNHazard0DOWNHazard0.gif,The absence of the rock <strong>allowed</strong> the farmer to reach the <strong>apple</strong>.,The wizard <strong>moved</strong> his wand.,The absence of the rock <strong>let</strong> the farmer reach the <strong>apple</strong>.,The absence of the rock <strong>caused</strong> the farmer to reach the <strong>apple</strong>.,The absence of the rock <strong>blocked</strong> the farmer from reaching the <strong>apple</strong>.,Tue Aug 30 2022 04:01:24 GMT-0700 (Pacific Daylight Time),1.66186E+12,9.677483333,slider_rating,5,no,no,no,no,no
309,27511,44,No,Graduated College,1.66186E+12,Female,English,images/DOWNHazard100DOWNHazard100.gif,The presence of the rock <strong>allowed</strong> the farmer to reach the <strong>apple</strong>.,The wizard <strong>moved</strong> his wand.,The presence of the rock <strong>let</strong> the farmer reach the <strong>apple</strong>.,The presence of the rock <strong>caused</strong> the farmer to reach the <strong>apple</strong>.,The presence of the rock <strong>blocked</strong> the farmer from reaching the <strong>apple</strong>.,Tue Aug 30 2022 04:01:24 GMT-0700 (Pacific Daylight Time),1.66186E+12,9.677483333,slider_rating,6,no,no,no,no,yes
309,29682,44,No,Graduated College,1.66186E+12,Female,English,images/DOWNHazard0DOWNHazard100.gif,The appearance of the rock <strong>allowed</strong> the farmer to reach the <strong>apple</strong>.,The wizard <strong>moved</strong> his wand.,The appearance of the rock <strong>let</strong> the farmer reach the <strong>apple</strong>.,The appearance of the rock <strong>caused</strong> the farmer to reach the <strong>apple</strong>.,The appearance of the rock <strong>blocked</strong> the farmer from reaching the <strong>apple</strong>.,Tue Aug 30 2022 04:01:24 GMT-0700 (Pacific Daylight Time),1.66186E+12,9.677483333,slider_rating,7,no,yes,no,no,yes
316,44403,53,"I thought that the word ""got"" implied that the presence or absence of the rock made the farmer go and get the apple. However, the farmer did not always get the apple when the rock was not present. So in either case the rock did not cause the farmer to get the apple.",Graduated College,1.66186E+12,Male,English,images/UPHazard0DOWNHazard100.gif,The appearance of the rock <strong>allowed</strong> the farmer to reach the <strong>apple</strong>.,The wizard <strong>moved</strong> his wand.,The appearance of the rock <strong>let</strong> the farmer reach the <strong>apple</strong>.,The appearance of the rock <strong>got</strong> the farmer to reach the <strong>apple</strong>.,The appearance of the rock <strong>enabled</strong> the farmer to reach the <strong>apple</strong>.,Tue Aug 30 2022 07:10:12 GMT-0400 (Eastern Daylight Time),1.66186E+12,7.117116667,slider_rating,1,no,yes,no,no,no
316,47160,53,"I thought that the word ""got"" implied that the presence or absence of the rock made the farmer go and get the apple. However, the farmer did not always get the apple when the rock was not present. So in either case the rock did not cause the farmer to get the apple.",Graduated College,1.66186E+12,Male,English,images/DOWNHazard0DOWNHazard0.gif,The absence of the rock <strong>allowed</strong> the farmer to reach the <strong>apple</strong>.,The wizard <strong>moved</strong> his wand.,The absence of the rock <strong>let</strong> the farmer reach the <strong>apple</strong>.,The absence of the rock <strong>got</strong> the farmer to reach the <strong>apple</strong>.,The absence of the rock <strong>enabled</strong> the farmer to reach the <strong>apple</strong>.,Tue Aug 30 2022 07:10:12 GMT-0400 (Eastern Daylight Time),1.66186E+12,7.117116667,slider_rating,2,yes,no,yes,no,yes
316,21157,53,"I thought that the word ""got"" implied that the presence or absence of the rock made the farmer go and get the apple. However, the farmer did not always get the apple when the rock was not present. So in either case the rock did not cause the farmer to get the apple.",Graduated College,1.66186E+12,Male,English,images/UPHazard0UPHazard0.gif,The absence of the rock <strong>allowed</strong> the farmer to reach the <strong>apple</strong>.,The wizard <strong>moved</strong> his wand.,The absence of the rock <strong>let</strong> the farmer reach the <strong>apple</strong>.,The absence of the rock <strong>got</strong> the farmer to reach the <strong>apple</strong>.,The absence of the rock <strong>enabled</strong> the farmer to reach the <strong>apple</strong>.,Tue Aug 30 2022 07:10:12 GMT-0400 (Eastern Daylight Time),1.66186E+12,7.117116667,slider_rating,3,yes,no,yes,yes,yes
316,24530,53,"I thought that the word ""got"" implied that the presence or absence of the rock made the farmer go and get the apple. However, the farmer did not always get the apple when the rock was not present. So in either case the rock did not cause the farmer to get the apple.",Graduated College,1.66186E+12,Male,English,images/DOWNHazard100DOWNHazard0.gif,The disappearance of the rock <strong>allowed</strong> the farmer to reach the <strong>apple</strong>.,The wizard <strong>moved</strong> his wand.,The disappearance of the rock <strong>let</strong> the farmer reach the <strong>apple</strong>.,The disappearance of the rock <strong>got</strong> the farmer to reach the <strong>apple</strong>.,The disappearance of the rock <strong>enabled</strong> the farmer to reach the <strong>apple</strong>.,Tue Aug 30 2022 07:10:12 GMT-0400 (Eastern Daylight Time),1.66186E+12,7.117116667,slider_rating,4,yes,yes,yes,no,yes
316,24259,53,"I thought that the word ""got"" implied that the presence or absence of the rock made the farmer go and get the apple. However, the farmer did not always get the apple when the rock was not present. So in either case the rock did not cause the farmer to get the apple.",Graduated College,1.66186E+12,Male,English,images/DOWNHazard100DOWNHazard100.gif,The presence of the rock <strong>allowed</strong> the farmer to reach the <strong>apple</strong>.,The wizard <strong>moved</strong> his wand.,The presence of the rock <strong>let</strong> the farmer reach the <strong>apple</strong>.,The presence of the rock <strong>got</strong> the farmer to reach the <strong>apple</strong>.,The presence of the rock <strong>enabled</strong> the farmer to reach the <strong>apple</strong>.,Tue Aug 30 2022 07:10:12 GMT-0400 (Eastern Daylight Time),1.66186E+12,7.117116667,slider_rating,5,no,no,no,no,no
316,15247,53,"I thought that the word ""got"" implied that the presence or absence of the rock made the farmer go and get the apple. However, the farmer did not always get the apple when the rock was not present. So in either case the rock did not cause the farmer to get the apple.",Graduated College,1.66186E+12,Male,English,images/DOWNHazard100UPHazard0.gif,The disappearance of the rock <strong>allowed</strong> the farmer to reach the <strong>apple</strong>.,The wizard <strong>moved</strong> his wand.,The disappearance of the rock <strong>let</strong> the farmer reach the <strong>apple</strong>.,The disappearance of the rock <strong>got</strong> the farmer to reach the <strong>apple</strong>.,The disappearance of the rock <strong>enabled</strong> the farmer to reach the <strong>apple</strong>.,Tue Aug 30 2022 07:10:12 GMT-0400 (Eastern Daylight Time),1.66186E+12,7.117116667,slider_rating,6,yes,yes,yes,no,yes
316,20693,53,"I thought that the word ""got"" implied that the presence or absence of the rock made the farmer go and get the apple. However, the farmer did not always get the apple when the rock was not present. So in either case the rock did not cause the farmer to get the apple.",Graduated College,1.66186E+12,Male,English,images/DOWNHazard0DOWNHazard100.gif,The appearance of the rock <strong>allowed</strong> the farmer to reach the <strong>apple</strong>.,The wizard <strong>moved</strong> his wand.,The appearance of the rock <strong>let</strong> the farmer reach the <strong>apple</strong>.,The appearance of the rock <strong>got</strong> the farmer to reach the <strong>apple</strong>.,The appearance of the rock <strong>enabled</strong> the farmer to reach the <strong>apple</strong>.,Tue Aug 30 2022 07:10:12 GMT-0400 (Eastern Daylight Time),1.66186E+12,7.117116667,slider_rating,7,yes,yes,yes,no,yes
324,31321,,,,1.66186E+12,,,images/UPHazard0DOWNHazard100.gif,The appearance of the rock <strong>allowed</strong> the farmer to reach the <strong>apple</strong>.,The wizard <strong>moved</strong> his wand.,The appearance of the rock <strong>enabled</strong> the farmer to reach the <strong>apple</strong>.,The appearance of the rock <strong>made</strong> the farmer reach the <strong>apple</strong>.,The appearance of the rock <strong>prevented</strong> the farmer from reaching the <strong>apple</strong>.,Tue Aug 30 2022 07:06:42 GMT-0400 (Eastern Daylight Time),1.66186E+12,13.32698333,slider_rating,1,no,yes,no,no,yes
324,31800,,,,1.66186E+12,,,images/DOWNHazard100UPHazard0.gif,The disappearance of the rock <strong>allowed</strong> the farmer to reach the <strong>apple</strong>.,The wizard <strong>moved</strong> his wand.,The disappearance of the rock <strong>enabled</strong> the farmer to reach the <strong>apple</strong>.,The disappearance of the rock <strong>made</strong> the farmer reach the <strong>apple</strong>.,The disappearance of the rock <strong>prevented</strong> the farmer from reaching the <strong>apple</strong>.,Tue Aug 30 2022 07:06:42 GMT-0400 (Eastern Daylight Time),1.66186E+12,13.32698333,slider_rating,2,yes,yes,yes,yes,no
